head_Accel_X,head_Accel_Y,head_Accel_Z,head_Gyro_X,head_Gyro_Y,head_Gyro_Z,head_Quat_q0,head_Quat_q1,head_Quat_q2,head_Quat_q3,torso_Accel_X,torso_Accel_Y,torso_Accel_Z,torso_Gyro_X,torso_Gyro_Y,torso_Gyro_Z,torso_Quat_q0,torso_Quat_q1,torso_Quat_q2,torso_Quat_q3,pelvis_Accel_X,pelvis_Accel_Y,pelvis_Accel_Z,pelvis_Gyro_X,pelvis_Gyro_Y,pelvis_Gyro_Z,pelvis_Quat_q0,pelvis_Quat_q1,pelvis_Quat_q2,pelvis_Quat_q3,femur_r_Accel_X,femur_r_Accel_Y,femur_r_Accel_Z,femur_r_Gyro_X,femur_r_Gyro_Y,femur_r_Gyro_Z,femur_r_Quat_q0,femur_r_Quat_q1,femur_r_Quat_q2,femur_r_Quat_q3,tibia_r_Accel_X,tibia_r_Accel_Y,tibia_r_Accel_Z,tibia_r_Gyro_X,tibia_r_Gyro_Y,tibia_r_Gyro_Z,tibia_r_Quat_q0,tibia_r_Quat_q1,tibia_r_Quat_q2,tibia_r_Quat_q3,talus_r_Accel_X,talus_r_Accel_Y,talus_r_Accel_Z,talus_r_Gyro_X,talus_r_Gyro_Y,talus_r_Gyro_Z,talus_r_Quat_q0,talus_r_Quat_q1,talus_r_Quat_q2,talus_r_Quat_q3,ulna_r_Accel_X,ulna_r_Accel_Y,ulna_r_Accel_Z,ulna_r_Gyro_X,ulna_r_Gyro_Y,ulna_r_Gyro_Z,ulna_r_Quat_q0,ulna_r_Quat_q1,ulna_r_Quat_q2,ulna_r_Quat_q3,femur_l_Accel_X,femur_l_Accel_Y,femur_l_Accel_Z,femur_l_Gyro_X,femur_l_Gyro_Y,femur_l_Gyro_Z,femur_l_Quat_q0,femur_l_Quat_q1,femur_l_Quat_q2,femur_l_Quat_q3,tibia_l_Accel_X,tibia_l_Accel_Y,tibia_l_Accel_Z,tibia_l_Gyro_X,tibia_l_Gyro_Y,tibia_l_Gyro_Z,tibia_l_Quat_q0,tibia_l_Quat_q1,tibia_l_Quat_q2,tibia_l_Quat_q3,talus_l_Accel_X,talus_l_Accel_Y,talus_l_Accel_Z,talus_l_Gyro_X,talus_l_Gyro_Y,talus_l_Gyro_Z,talus_l_Quat_q0,talus_l_Quat_q1,talus_l_Quat_q2,talus_l_Quat_q3,ulna_l_Accel_X,ulna_l_Accel_Y,ulna_l_Accel_Z,ulna_l_Gyro_X,ulna_l_Gyro_Y,ulna_l_Gyro_Z,ulna_l_Quat_q0,ulna_l_Quat_q1,ulna_l_Quat_q2,ulna_l_Quat_q3
8.72974490490031,-0.6900588011647304,4.4217048784666915,-0.015803408143852393,0.03629896781573882,0.020190391344065386,0.3730393810212789,0.3653949509919094,0.5706754188427222,0.6337647168512656,9.758956287483805,0.9037466976114134,0.4267474996888961,0.004729439823331382,0.007778979489645241,-0.0057760586338190464,0.5033387754031506,0.4727647459973413,0.5410292022695685,0.4800322639253329,9.645694756120408,0.7853685316584729,-1.6061971016116194,0.0054769016311078025,-0.016370947422729952,-0.011082038350518538,0.5528654930537436,0.5245358150459927,0.4841164368011726,0.4299223196618355,9.599490375118924,1.8511277984019205,-0.8119175964896059,0.0017508986812688723,0.0024890152003013426,0.005221991707798066,0.5745650810547323,0.463154078049633,0.5140272256945724,0.4371947836643347,9.509193646117335,-0.6231956807478297,-2.3287257181452956,0.004447643176469201,-0.009999305199301789,0.005419154372403969,0.5455791635022851,0.5658038084700462,0.4130134252171462,0.4600318872245039,9.32104673530997,3.052606344850564,-0.18916338866827723,-0.005702498679780296,0.021234773018672878,0.0031667693852417034,0.5875191926195895,0.412380457668801,0.557142402969322,0.4175594559461748,9.64653852062876,-0.8884776712798623,1.5462872170833135,-0.024598717829325656,0.021655815911319768,-0.051660475170089454,0.672734447755726,-0.06653154041469365,0.04630447679984735,0.7354303586072164,-1.6579142929169022,9.560384444778812,-1.4444615311949272,0.0015248246590778831,0.02257066527370874,0.0009990083094645122,0.9774149060516907,0.05759053734450362,0.1787109311198828,-0.09698368179544813,-2.759456745092034,9.292479599233392,-1.5070903005993035,-0.0008945753135247084,0.02146872630527141,-0.003449389697727847,0.9755291159711548,0.05555485837318253,0.1482084941969475,-0.15261338031623,1.3248627799262678,9.611441094587985,-1.449495936589884,0.008833505695623616,0.021061247724495538,0.0030757877571108492,0.9844283953811038,0.08330534538922517,0.1441544485020352,0.05639546767286528,-9.282315803565218,2.9959247077613553,-1.0484044804240016,-0.0015043740127735818,0.011854792256086913,-0.059079322985292566,0.8077991304153086,0.05702007453254924,0.01257288276473946,-0.5865587767816264
8.734534110241501,-0.6889810920821277,4.412405414871343,0.01875792524538008,-0.08555254991691584,-0.017958466618939253,0.3733427209001077,0.365741046746151,0.570525158468083,0.6335216989424298,9.75900464120304,0.9038845497652909,0.4253470466159682,0.005359417020758373,-0.013145968567027815,0.003971901748607001,0.5033393369831417,0.472832304306387,0.5410351570800325,0.4799584176291405,9.645784873805209,0.7853763848044308,-1.6056519042918804,-0.0023378733102182073,0.01543010317318187,0.0078119468197273825,0.5528448801251623,0.5245297742957632,0.4841403880977527,0.4299292255815926,9.599549485799884,1.8511541471250972,-0.8111580650957934,0.0002394413430225519,0.0027162115873853197,-0.004053640749600827,0.5745388196917813,0.4631416206434887,0.5140578834038211,0.4372064459786488,9.508907572612598,-0.6233287216936737,-2.3298580804227678,0.0004801007588893996,0.0005114409795321232,-0.004071143379935378,0.5455865445358592,0.5658496633523448,0.4129954637798705,0.4599828559878167,9.321061831033095,3.052504857508744,-0.1900530464224881,0.009528919642654683,-0.01913455068537369,-0.0017807533967545545,0.5875157543313607,0.4124242102306916,0.5571413893436387,0.4175224323414046,9.646422888579508,-0.886584940370922,1.5480940371590952,0.02936195109436286,-0.00581928486496903,0.02834783513657585,0.6727977048620446,-0.06653303189371064,0.04642675981750519,0.7353646442223365,-1.656506245879419,9.560670196506498,-1.4441848179119896,-0.002779233700000261,-0.016923328520019328,0.007569163309995306,0.9774236070809258,0.05758995020653036,0.1787041058264896,-0.09690888770838352,-2.759622094012156,9.292483675244945,-1.506761647780108,-0.0005484683912660737,-0.01863401635750624,0.002234034547833665,0.9755329518730231,0.05554062620754021,0.1481839617468503,-0.1526178630809262,1.3247313187901462,9.61150783873037,-1.449172972490471,-0.00874071682073364,-0.01756751199464318,-0.0024996597437187272,0.9844331742321544,0.08328664592392786,0.1441336251611302,0.05639289121740355,-9.283314364120328,2.992382461803523,-1.0496778994997336,-0.00022756397748120347,0.0005708108664308983,0.02138518760767544,0.8076861699340678,0.05705021302487447,0.01264975935600111,-0.5867097303431125
8.742056887731373,-0.6875542574851702,4.397705310741377,-0.013466856929824049,0.028232350543036557,0.032968917403692406,0.373782780835452,0.3663287734382632,0.5703007134715933,0.6331245996768137,9.759139906633777,0.903915079790008,0.42216640174500236,0.01931958141695467,0.002425658613098312,-0.007020725592620543,0.5033267928245265,0.4729996547471119,0.5410482850726352,0.4797918501330024,9.645954058914196,0.7855090639759033,-1.6045704265577807,0.010986645813515574,-0.02077269398131939,-0.017247933780189906,0.5528006622334859,0.5245201295977248,0.4841978610995609,0.4299331259482292,9.599666187637895,1.8509849964205438,-0.8101623424915082,0.004967736796969676,0.0039003146898822154,0.008686594011396917,0.574488014184245,0.4631407361633365,0.5141062773287908,0.4372172408264091,9.508365740283205,-0.6237608796383932,-2.3319527403901867,0.00951121697351552,-0.019220195937047727,0.008820064750733606,0.5455915623725567,0.5659431486582415,0.4129621689390444,0.4598917770300187,9.321142306878683,3.052184607845718,-0.191251505119491,-0.005775991172483815,0.03180281415560042,0.00572412827123067,0.5874938614120855,0.4124984999959779,0.5571498220544686,0.4174685929370728,9.646062414044339,-0.8811894030434659,1.5534117449790255,-0.017307253825614453,0.05076654662800359,-0.09340845750713477,0.6729789133094185,-0.06656503482921447,0.04676171997247172,0.7351746866726818,-1.6538030081993016,9.561244016496605,-1.4434845184331189,-0.0007578107410834895,0.035811731866246255,0.006788945651559171,0.977435825058815,0.05757747676553641,0.1787190974753441,-0.09676531536922706,-2.759360625432916,9.292681908319125,-1.5060184151010605,-0.004277036341502243,0.03336607564784899,-0.0017490567810976645,0.9755400720696065,0.05550653419853892,0.1481711627172921,-0.1525971788294239,1.3250626966050267,9.611574933493968,-1.4484251936013537,0.01089241841240082,0.033729521666331655,0.007333225722696482,0.984435675630166,0.08325075036665441,0.1441283912984474,0.05641560007381978,-9.285539685402714,2.983583742073345,-1.0550321935579334,-0.003265965325843504,0.04429898579281903,-0.11740764217516855,0.807404150459035,0.05720071662753119,0.01292712090905729,-0.5870770864067372
8.73420374876387,-0.7001307753104532,4.411303641033616,0.01363631385386583,-0.013263609147509814,0.009502070352712251,0.373006990225309,0.3661088032023511,0.5702466565371579,0.6337577456481231,9.758857709469,0.9068709099326022,0.4223507412226174,0.01860209983057459,-0.010403405498033414,-0.002050872087036678,0.503196404533272,0.473088598648123,0.5413087304954766,0.4795470931861839,9.644213115373729,0.7906102518893732,-1.6125101207419335,0.005075625479304114,-0.002538247780740256,-0.0026134080693835508,0.5530153565529244,0.524656126617837,0.4842211833858558,0.4294645617270553,9.600219224308846,1.8479138251899372,-0.8106202041897878,-0.005553128301717429,-0.00715254353083873,0.0021529146051158013,0.5744197733677016,0.4632423739345956,0.5140302852422858,0.4372885692644767,9.506820821657879,-0.6272880295895217,-2.3372992516020457,-0.0070003596069239836,-0.003025475711143982,0.0031983274708270266,0.545593117261584,0.5661815766812792,0.4127423929993365,0.4597937468525095,9.321897012501251,3.0507014980405245,-0.17764088272427972,-0.01403696621559376,0.013816881288044992,-0.0004584244020283851,0.5871981929189461,0.4121296471308477,0.5573936278358881,0.4179231745625917,9.646275607660453,-0.8485741458880908,1.5701554159923938,0.032941377565310716,0.023505896581736716,-0.04024483407657672,0.6741879897148588,-0.06740726359073898,0.04711815599977864,0.7339664125248693,-1.6517985016804781,9.561281874968348,-1.4455274871885688,-0.0016976034773235388,0.007911999224432876,-0.004670966754070543,0.9773217785554233,0.05763688066987972,0.1793470895952677,-0.09671997002489825,-2.75737571685363,9.292916573150874,-1.5082042421146986,-0.0026763231077353506,0.010554233897765788,0.005469382907611736,0.9754494376051809,0.05553395741019832,0.1488068598884638,-0.1525480012987186,1.3294516784132722,9.610609921837913,-1.4508048866041436,0.0013968913420414196,0.010184162251044366,0.0025577531315473397,0.9843187636120416,0.08344223425495732,0.1447548942899,0.05656841630205193,-9.296369788669796,2.944482595740705,-1.06941044312406,-0.0064720953157660945,0.02990697629333401,-0.056353503182798075,0.8061553585919274,0.05756848608278333,0.01375319116306292,-0.5887361522418081
8.745311609104391,-0.6981344320536096,4.389558773523239,-0.026639181738015147,-0.06279921995770749,0.029469811609962843,0.3736585939217761,0.3669760205999523,0.5699091935303031,0.6331756206793374,9.75917171334181,0.9068862212104786,0.4149949595199813,0.023438001980458496,-0.01798902786819791,-0.005196999973206289,0.503241929941931,0.4734094952234793,0.5412671256518382,0.479229494573496,9.644533149809376,0.7911058830586821,-1.6103518170563924,0.012840524093272706,-0.012406302841770458,-0.02493066342401273,0.5529424609149824,0.5246219856449508,0.4843305012429541,0.4294768592846198,9.600359716782176,1.848065990178802,-0.8086051296167343,0.02508848075979881,0.03337172696782044,0.006311924861821956,0.5743346142605436,0.4632218977432447,0.5141329778180718,0.4373013896996688,9.506250437324898,-0.6274977382485437,-2.3395623365665306,0.03981455155166757,-0.03367739144399595,0.0039718133725486545,0.5455883363671106,0.5662952649343218,0.4127357733814708,0.459665336418066,9.321917154609217,3.0505146587834884,-0.17981569458873034,0.035179168993568224,0.012678539324872068,0.00940255236651647,0.5871703168602338,0.4122504963019889,0.5574144365835558,0.4178153817001637,9.645877736554178,-0.8363415295676813,1.5791405290649814,-0.0471986128759712,0.07634275523455593,-0.12949163265312047,0.6746121371161805,-0.06748262302410621,0.04766187594030725,0.7335345292671482,-1.6479506525265317,9.562110082073117,-1.4444405303237973,-0.004344799095451008,0.04192423351403013,0.039033541933247005,0.9773379031422118,0.05761386537017179,0.1793769042956274,-0.09651524130420816,-2.757101090366875,9.29318625401691,-1.5070469652833585,-0.007083798613335514,0.027445110593774767,-0.01177229891030417,0.9754581775003363,0.05547852385095616,0.1487956873773704,-0.1525231810477915,1.3293379599572424,9.610808391234144,-1.4495955471647273,0.006901985684946765,0.03059713079490593,0.0034010335751542262,0.9843241132675989,0.08337956390350869,0.1447534053567058,0.05657154762646147,-9.30089778728165,2.9270526540233703,-1.0778623753148195,0.0057882490639701925,0.055880492492075884,-0.17263646947919156,0.8055968279641981,0.05781740339886467,0.01418136061428812,-0.5894656797892162
8.74697170018958,-0.7182632086341154,4.382998825746121,-0.0036121218450099546,-0.03261212085471528,0.022332709655710714,0.373574144102053,0.3673896352917828,0.5690638464541439,0.633745653553067,9.759102464013164,0.910259357966346,0.4091987681928212,0.033764368801336424,-0.02527917785611355,-0.0031760441158732357,0.5031971914573778,0.4737132552900838,0.5414675087949528,0.4787496999385656,9.642401742143596,0.8009711695507089,-1.618219500172358,0.013169032824332386,-0.0008031798093486083,-0.012693786167745108,0.5532024687609234,0.5246884462662643,0.4845526250732307,0.4288097672000419,9.601891212576398,1.8441425226631876,-0.7993264733004384,0.00021705199873707482,0.008336348611682703,0.002656639742873863,0.5737866378548684,0.4632942842241539,0.5145501790977569,0.4374533273560752,9.503145577936925,-0.6332269210293814,-2.3506059531895187,0.004456028592098041,-0.008044989657032972,0.003034331876337933,0.545406272732099,0.5670019329294439,0.4126226284685422,0.4591115030082181,9.323244539550661,3.0468650175339302,-0.1726986062525121,-0.004062856235240386,0.018763289232172298,0.0013317686295136657,0.5866188064782107,0.4123926108790421,0.5578281209160225,0.4178977122379898,9.645544370568732,-0.7801456617462229,1.6096416680108596,0.03154886193210255,0.06131280409276463,-0.11463778572261946,0.67671432925374,-0.06945601274786234,0.04790706805826787,0.7313948945035712,-1.6330520479712975,9.564322261159848,-1.4467127723595072,-0.003248171983303327,0.025580588630917382,0.009758621554081295,0.9772167969902209,0.0577689259567965,0.1803483780235184,-0.09583603402821739,-2.758356337260312,9.292526027899406,-1.5088168388613448,-0.005479850928824771,0.02351328268874772,0.003316140103732426,0.9753177070704934,0.05543361383893751,0.14960131941544,-0.1526496968902014,1.3331162732541904,9.60993762644222,-1.4518947250683607,0.003926968632554896,0.022750892702111617,-0.0018137378063169261,0.9841804673869494,0.08357360790507165,0.1455745585322659,0.05667722279603057,-9.320562117980556,2.8547485246268054,-1.1016612229222345,-0.028789322631065782,0.0675013665186563,-0.14958385645635688,0.803281067559556,0.05843388363974573,0.01554555189309745,-0.592522863322164
8.759898654627747,-0.7163370164223459,4.3574217906691235,-0.02536431169876585,-0.11091061980774325,0.027889825491279843,0.3743092580547726,0.36843667814169,0.5686669398443475,0.6330599537662035,9.759697125561193,0.9098928822283124,0.3955997641064365,0.015384762409373328,-0.042890935747839094,-0.002321558153210017,0.503342097772934,0.4742540957709476,0.541315535204062,0.4782334959000287,9.642795801471765,0.8020002792433714,-1.6153597964918789,0.01223463730059354,-0.018190572835493114,-0.03291758572392733,0.5530967546183327,0.5246491664504372,0.4847273953431364,0.4287966702032421,9.602128388145344,1.8445702544026443,-0.7954771150428401,0.04888674866926288,0.059451190912435885,0.006706828120026059,0.5736397372937801,0.4632406083660462,0.5147351289430526,0.4374852427112911,9.503202534662426,-0.6331151108478917,-2.350407167837851,0.0713755734835191,-0.03605536354384224,0.00048487068070921587,0.5453335527972373,0.5670738519509133,0.41272565986168,0.4590164401400427,9.32319505718397,3.047115698720528,-0.17103116021206324,0.06236623168605485,0.029230173489882674,0.012388073041139631,0.5864969157885177,0.4124059138433793,0.5579676892939474,0.4178693428591488,9.644757072775855,-0.7580971142924006,1.6248292270820297,-0.09628981035544017,0.10038400673118153,-0.14266360066740671,0.6774826377289335,-0.06964453019484496,0.04877021843295207,0.7306082266056056,-1.6284776238466776,9.565303663275008,-1.4453813595488398,-0.007806498111510764,0.05155357798679193,0.05959789666318846,0.9772230099849171,0.05773305933316743,0.1804533388321027,-0.09559641792660399,-2.7571103195498505,9.293111866640285,-1.5074930676933047,-0.010783036581283198,0.0289198355190865,-0.019362406786647173,0.9753227266432017,0.05536482939410761,0.1496682006702623,-0.1525770109405664,1.3342818935516032,9.609983961898006,-1.450521676105064,0.007294182421857525,0.03770745943744123,0.019874999526844947,0.9841699991598691,0.08351723765651475,0.1456532808623435,0.05673980562113036,-9.327814064268756,2.825407147090557,-1.1158364798458507,0.07103929772840609,0.05105869494322959,-0.1979171492812476,0.8023368527378146,0.05889898333303584,0.01619505481118196,-0.5937374880372437
8.770750687188695,-0.7398960313747153,4.331579289539165,-0.03144730131441518,-0.06380269851586559,0.02413931386869036,0.3749327065566503,0.3694229758253651,0.5671985925365284,0.6334334117419269,9.76005506162681,0.9124028232854791,0.38070926610175093,0.028640453924141482,-0.053668190584343835,-0.002170199187942401,0.5036428283084643,0.4747024063864574,0.5411539939184654,0.4776545631839508,9.639889101988393,0.8176967376166233,-1.6248108307915938,0.010652814249804745,0.007789692014647756,-0.02860008531331487,0.5535405053131581,0.524590407298183,0.485045978140273,0.4279348228858292,9.604869771041704,1.8394724398205338,-0.7738971825539582,-0.0038493833099593564,0.03818907844825159,0.0020091877056676536,0.5725005071063787,0.4632629308206601,0.5157500731823899,0.4377584817028119,9.499061514126495,-0.6414203472265669,-2.3648489054017503,0.011458774988566683,-0.011837525174700336,0.0033044040490718377,0.5448668758574039,0.5682469663138775,0.4128291663924487,0.4580257113352736,9.325208062758875,3.0413167314236613,-0.16428445677250694,0.001323365976672309,0.023206860277380444,0.002596146772354718,0.5855214534345062,0.4129099143506268,0.5587268267089355,0.4177252246569083,9.642064139872277,-0.6922502931392679,1.6695786696618862,-0.008049787931769789,0.12459430593830403,-0.18491341457235036,0.679976415060972,-0.07325239365505959,0.04847262129647584,0.7279536844946122,-1.599542947381742,9.569910256705766,-1.4471963193297854,-0.005953552643242229,0.03704009584474793,0.040282784898958375,0.9771135116204922,0.05796982031968658,0.181692605902072,-0.09421508531699119,-2.7632248209796493,9.291217553955995,-1.5079691664387918,-0.008229298373731308,0.023719607973409634,-0.006098730893718248,0.9751395196952004,0.0552065727240983,0.1505370121932754,-0.1529501860626338,1.3431685633717974,9.608430472390417,-1.4526064459178778,0.002803069769568033,0.02557896334109309,-0.0027884572364351074,0.9839878107559729,0.08374870862890386,0.1466093500575324,0.0570950134632341,-9.351895095078936,2.73092268522709,-1.1490309954779796,-0.019528141173999678,0.1095210000460621,-0.23122550564273744,0.7993119946278882,0.0605035708360958,0.01707289752252375,-0.5976187491455183
8.783485186818114,-0.7391941738486579,4.3058180082875275,-0.02116657120608196,-0.12744847247800917,0.024181437832164893,0.3757514143912218,0.3703724172132443,0.5666881185309935,0.6328504748093482,9.760814026364327,0.9120217977127363,0.36168589644311455,-0.012453280816070533,-0.04892710624577541,-0.003646255964588321,0.5040091852006483,0.4753118277211164,0.5407948120061411,0.4770685264917743,9.640257932205316,0.8205868059689022,-1.6211631262686594,0.011493053946730947,-0.040520540332549676,-0.03399339066827813,0.5534740853313747,0.5244708954571468,0.4852735671154845,0.4279091980128379,9.605042285254735,1.840948888078536,-0.7682186981382952,0.09515745913043122,0.06044655215754318,0.003741802160855754,0.5723514798472292,0.4631194786600165,0.5159883858270232,0.4378243000268309,9.499617950196074,-0.6402567652448291,-2.3629316043888657,0.11455913784561138,-0.04065560748716081,-0.010267900512323685,0.5447947755522523,0.5682403300828782,0.412996138630814,0.4579691793934503,9.324765944354693,3.0432024751400317,-0.1543197439873519,0.08471738370870145,0.09057312884761509,0.0067987910866277885,0.5852932509603812,0.412609088157266,0.5590518101869929,0.4179074350581764,9.639549590487103,-0.6571205655026603,1.6980550596412447,-0.14063684796612486,0.11076552243984761,-0.13201363485861542,0.6812034290412745,-0.07403682421864523,0.04969839579207425,0.726643314410668,-1.593914528965288,9.571012177517586,-1.4461175944640763,-0.007942474853232538,0.06846218302426732,0.050491074816644214,0.9771002605363478,0.05794535239712587,0.181918307641438,-0.09393160458679121,-2.7620290805868852,9.29175199714776,-1.506867755776348,-0.013609689026901524,0.04666102854775252,-0.02480705701455799,0.9751261634797144,0.05513160574456148,0.1507138658324893,-0.1528882009547698,1.345888829204889,9.608199985480157,-1.4516127884947458,0.016805807500643505,0.061577996231944,0.05185231896400777,0.9839527226218429,0.08373085842265293,0.1468046212806985,0.05722399989077254,-9.361866780781492,2.6856744811018642,-1.1742089784418515,0.20262997048432593,0.022898284991440563,-0.19713065363048193,0.7978505409705772,0.0615824925210579,0.01787345556954098,-0.5994352763008319
8.800854944518424,-0.7601786581447574,4.266520162342051,-0.04928975474681041,-0.09996251236949219,0.007045115148857431,0.3769097396440931,0.3717360838154461,0.5649727076531758,0.6328958617008147,9.76136177491241,0.9134808340967707,0.34273319233475924,0.00803026945272674,-0.09175645315848688,0.00442566209752473,0.5047268183145617,0.4755956027287042,0.5401939953064983,0.4767075717607,9.638073709777313,0.8359941228946263,-1.6262675464685024,0.016186691508465623,0.09867289218496754,-0.023220750397093353,0.5537775127604594,0.5243429604089729,0.4857363342415859,0.4271476791789225,9.606952765851005,1.8372218336145232,-0.7531096535518147,-0.05175608202593228,-0.008026089956349028,-0.012289072957987719,0.5711011318502006,0.4635187547835062,0.5171883207230881,0.4376186719862396,9.495639806303245,-0.6465895731569373,-2.377151474254541,-0.0545179495256357,0.014935120867315976,-0.003977334519499833,0.544176882224336,0.569577898745466,0.4134197493927626,0.4566581313469915,9.325713768954788,3.041783543637984,-0.1212887707847756,-0.09582357363472324,0.0941432210194445,-0.026687225800846297,0.5836556661161019,0.4123699092859816,0.5606967993008322,0.4182298657196102,9.63613338794752,-0.5974241117904845,1.7390072688011091,0.22990795412389378,0.09999978781387292,-0.19011419601546595,0.6834297609402967,-0.07697729696384079,0.04974307432790549,0.7242402116491723,-1.5726845039551938,9.574334273516405,-1.4473730008834043,-0.00315632999634122,-0.032497174511082104,-0.006443623950434677,0.9769888198123975,0.05810356185008698,0.1829790594310732,-0.09292731499204801,-2.7688421047755662,9.28971781619908,-1.5069038839153508,0.0005493471157954465,-0.027617876810614256,0.012165671678815701,0.9749547423790935,0.05496139395430746,0.1514770383458798,-0.1532879719386875,1.3657416399016524,9.60497755897392,-1.454392065654089,-0.012928341828111313,-0.02780507695498838,-0.0019380257512531859,0.9837327663904915,0.08408333175391679,0.1477165431616881,0.05813484778712975,-9.383605478730097,2.5950192329357487,-1.2041550331404676,-0.18485179700865184,0.14860389992770917,-0.22186468146117846,0.7949528057105786,0.06375015336337608,0.01773570482084327,-0.6030517385876047
8.818788401742667,-0.7601306689751236,4.229330814591611,0.009246186924908318,-0.21356368324091854,0.057591390552335586,0.3781488887971599,0.3730173927099898,0.5641465315941134,0.6321393307868497,9.762483821227578,0.9124006277212089,0.3122435360920419,-0.020304670149010662,-0.052324164782968204,-0.014187632309764622,0.5054184025387278,0.476479147739635,0.5394959692529564,0.475882295640765,9.638197635912581,0.8394614444721025,-1.623769419144042,-0.00803915504571973,-0.3072051530890395,-0.05490211240865363,0.5537831868313436,0.5242069519262762,0.485912046247525,0.4271074066866871,9.60717665768842,1.8399023294534702,-0.7436159946745203,0.29812656902782264,0.21433939024620793,0.02762767894254977,0.5709095105267732,0.4632282858599077,0.517532005742428,0.4377699270182815,9.497384266014443,-0.6441660388290392,-2.370854588421053,0.3662977899305342,-0.0932637970811745,-0.01939606360105333,0.5440519507767013,0.5694255136659022,0.4137339341159142,0.4567124817687355,9.324930100967451,3.04476488839068,-0.10784584695252315,0.3739878004956417,0.03724687619810908,0.06656306676979969,0.5833922066485205,0.4119240267822485,0.5611057684044436,0.4184882866276264,9.63262575639235,-0.5493825913130416,1.7740715733143915,-0.7872646935493807,0.20003238597944534,-0.16823575673999008,0.6851115718645553,-0.07798243284470241,0.05120868384791188,0.7224393019233272,-1.5655971821018,9.575788724789367,-1.4454819809568198,-0.01809070268583781,0.22606102881516343,0.17931832327165242,0.9770210896595237,0.05807063659985586,0.1830084501953655,-0.09254997937598153,-2.765939997007348,9.290888685908117,-1.5051241346921875,-0.03677748341484964,0.15685111627609036,-0.06497800125927265,0.9749875798616406,0.05489527810441356,0.1514601498613072,-0.1531193996898184,1.3705679602511018,9.604557501186257,-1.4526871908543184,0.05700410826917209,0.1921344551308526,0.13012338974443502,0.9837207643419791,0.08403583671307674,0.1477222116855259,0.05839164430894307,-9.395960138916122,2.5349106617455273,-1.2354571272559662,0.8528937006983947,-0.11532433923740233,-0.2945417149056303,0.793003942457443,0.06520969633975184,0.01859496526012448,-0.6054309787392818
8.851125706559495,-0.7901469337022451,4.155635336290763,0.03231915013772416,-0.1994292847298262,0.07647653339604385,0.3792966896130573,0.3767510591425736,0.562016410877114,0.6311340702167266,9.76200638736104,0.9202622345135272,0.30394607537651197,-0.00208520848721215,-0.060792814826084965,-0.01328492452949561,0.5061552178152172,0.4761848864768202,0.5391765968725032,0.4757556586678441,9.604898751540558,0.8693824070430233,-1.7961920185420572,0.0011350435874211764,-0.45502580505909934,-0.06694584808899923,0.5588100493968733,0.527228188986781,0.4817085155775763,0.4215669240474532,9.618132790384669,1.8131030403494406,-0.6635009827605776,0.3132911329740012,0.26496929236832073,0.029314383657275768,0.5639231723747478,0.4656654544086241,0.5238337694097491,0.4367430849540537,9.485229450121828,-0.6817685059515467,-2.408696160308813,0.3956363357305157,-0.0798691964193411,-0.025065568895100133,0.5397996293265147,0.5757221620590104,0.4169751576310841,0.4508792190948573,9.33612267782738,3.0082091244952895,-0.15538078370444527,0.41699744215393225,0.012643061807417977,0.07260197748276075,0.5780624129972259,0.4184866767103556,0.5649481280944906,0.4141815551883956,9.620741201116509,-0.5494504293313498,1.8374517589783992,-0.8704810115764199,0.23636638916742783,-0.25298161194061675,0.6859328044226282,-0.09595424766042795,0.03864358620413982,0.7202746999708604,-1.455311884989012,9.591775719409009,-1.4547656924230419,-0.030968334018133897,0.2823306545309037,0.22232150206398815,0.9763042962158549,0.05903011159397251,0.1889618636609385,-0.08740012126680641,-2.7855504279245853,9.28431314612666,-1.509622238571054,-0.057824068611101766,0.20313004559460152,-0.05474325421983894,0.9740856749827426,0.05424242988628905,0.1560841677606988,-0.1544428346278844,1.4478012999023955,9.591057879506833,-1.466948566645693,0.05662010220164374,0.23921051753918737,0.12122622929867724,0.9825879361948786,0.0857022970874174,0.1528425481024795,0.06176746237114149,-9.43801919982232,2.3532574087069977,-1.2736407811486126,0.9353947651285651,-0.11240679316022341,-0.35715883184504926,0.7873588018482145,0.0801801403547521,0.002920608733590335,-0.6112517748763283
8.87423577007951,-0.7905478696490779,4.105994077877537,-0.13755087203578184,-0.2386850063219713,-0.040087903932339033,0.3810701040760113,0.3782880854295255,0.5607971710650019,0.6302303016573012,9.763476976525881,0.9182977292483117,0.2594898143151077,-0.05137793039726686,-0.1782985730816966,0.006064940585558877,0.5072861749336813,0.4773633920036541,0.5380195720129267,0.4746787006249042,9.604393450003174,0.8731997478890059,-1.7970081792588448,-0.008347722455767058,0.34294293264691905,-0.0051878483950993,0.5589251558124716,0.5271413336250939,0.4817766094025228,0.4214451129347346,9.61806001934125,1.8175136296172558,-0.6524406947160355,-0.06616911499547011,-0.08074867698170655,-0.034272803847284476,0.5637164350060253,0.4652981794804543,0.5242705077762979,0.4368773509261555,9.488210806507176,-0.6773111435422429,-2.39816534822911,-0.09702517609164035,0.01448270477369964,-0.02216949274941822,0.5396259088236889,0.5754246535020341,0.4174715417730953,0.4510076035699029,9.334691495446537,3.0137029860491653,-0.13129497884587474,-0.19159750204066517,0.22628359247212812,-0.06945420781831974,0.5776386960833505,0.417650390745729,0.5656296873629146,0.4146863208146587,9.61496163369532,-0.48487924382949643,1.885101966963929,0.3904180594399482,0.12437814967275444,-0.151978087512264,0.6882191789869413,-0.09735629036255498,0.04051029300911028,0.7177987395932777,-1.4483439511761353,9.593189267510109,-1.4523303319145622,0.013978074013259494,-0.14238453660944517,-0.08072468706028454,0.9763428811488076,0.05897483422877672,0.1889543139410433,-0.08702192023164712,-2.7808721362224245,9.286036113580684,-1.507503214397885,0.028426368980390596,-0.11890902767249685,-0.00042396154133807207,0.9741366462763924,0.05417654677044979,0.1560505691161628,-0.1541781957344604,1.4584029837384627,9.589695141963988,-1.4652683670765527,-0.016278529072177944,-0.10778860963017392,0.06703229665798446,0.9825516220578643,0.0857035800514852,0.1528511735590036,0.06231954026991749,-9.4529839839608,2.2720108197341746,-1.3096697869036342,-0.27770325209064983,0.16596501289404408,-0.2663398366765257,0.7847208883283184,0.08206972976042648,0.003825108203543212,-0.614380220568254
8.924219368760243,-0.8239669706968411,3.9894208356057503,-0.09980482367491997,-0.4505924804262239,0.11252930858853258,0.3853703656585973,0.3814011804330288,0.5563227786784943,0.6297045233757577,9.76404529884823,0.9218169228145143,0.2228859279044393,-0.12278668911045605,-0.04161502668550501,-0.02710067170914898,0.5094357428800184,0.477220066228898,0.5361517903041584,0.4746340590585718,9.602627995927927,0.8942973619782306,-1.7961322603748624,-0.042316667473573766,-0.6832757574548145,-0.106902640681492,0.5595567849295385,0.5264241715112933,0.4821604987774757,0.4210641869200259,9.619975099032013,1.816445029054942,-0.6265321257063025,0.2630753930785004,0.37896073255303336,0.02983044724029172,0.5617500304808374,0.4657676461399227,0.5263254743804621,0.436438882413375,9.479449096358215,-0.6835902211244506,-2.430836977552558,0.3987502058327544,-0.185240554336141,-0.010391110532213838,0.5389309962998953,0.5777036630589438,0.4179867007859865,0.4484406057456515,9.33384300682903,3.01902697197689,-0.04711180986334014,0.3349837864611545,0.2000527729532246,0.06265985719807057,0.5745323708911669,0.4161064655529331,0.5690210009254975,0.4159123280560041,9.605696498508523,-0.4371297760193333,1.9432124905064967,-0.65259523456547,0.2360491519358796,-0.22003928732538422,0.6899714385163375,-0.1012914360422577,0.04074362320555552,0.7155553201425289,-1.4202767446725963,9.597042013234763,-1.4548091877480849,-0.008978268003639156,0.1426651320833925,0.34111814755640624,0.9765118516470737,0.05939945977493279,0.1885964881250304,-0.08560182496977028,-2.8134520574811788,9.276552931281383,-1.5058443293992518,-0.015884264151150365,0.00912505666778475,-0.15232673874425762,0.9740465711529285,0.05399215741571845,0.1550521518992914,-0.1558106362037539,1.5162131233631202,9.579586343473183,-1.4729871462535316,0.04033669240885743,0.08129550736773598,0.22564644444806906,0.9823651103673037,0.08654312348533949,0.1523570509146291,0.06524114305431587,-9.4782922290223,2.1478199808997585,-1.336020075458648,0.790949773426866,-0.10206696214893765,-0.3704950939368937,0.7806834899756997,0.08549918288771417,0.002176069096247195,-0.6190463980415224
8.978294858425956,-0.8572437351805466,3.8589743098380453,0.009112243258602264,-0.43719038092140894,0.060128636087400426,0.3881841743217609,0.3870772943252796,0.552833000004766,0.6275825755465841,9.763362144257625,0.9307658162920208,0.21554946141958473,-0.060433579897128505,-0.08200363165353744,-0.029037437610718215,0.5105330306738538,0.4765490868714428,0.5355336555320699,0.4748270171182579,9.527005535146278,0.930704583611866,-2.1462261374614666,-0.14183076656553723,-1.0581370336537954,-0.0623077833929331,0.5697616072262831,0.5325329606594693,0.4720299606221408,0.4110572624552969,9.631940607064221,1.8013456927746851,-0.4657097059997596,0.07895533222677634,0.5492750308153663,0.021884422010718305,0.5552747107536544,0.4639435751746657,0.53243038590638,0.4392541847440706,9.46650147918778,-0.7166951330867315,-2.471358553788488,0.27652015967968213,-0.13345316376617364,0.011939044203264908,0.5362870736397845,0.5823380554682166,0.4193677398212876,0.4443076215839175,9.34302705547468,2.990246406931266,-0.06220235524843836,0.25642049366044506,0.06859593737408448,0.0693147011737018,0.570675818045523,0.4200006738514861,0.5716042067864459,0.4137598040486877,9.59336030989375,-0.40813643614605777,2.009339872900485,-0.5941551580785285,0.2290200107381935,-0.23327670088789096,0.6913865615996729,-0.1126916453714648,0.03436992731149744,0.712814087683076,-1.259328612791064,9.619733642984079,-1.4534829369243527,-0.03587723380115174,0.14592279018588,0.46275282068805446,0.9765872429053086,0.06065875440873421,0.191247663569926,-0.07760285875683359,-2.8564310013140766,9.265127119486046,-1.495682773669459,-0.04087410735144746,-0.013864487490668948,-0.129185263481634,0.9736514302369941,0.05303615823107885,0.1556454868226932,-0.1580017112226022,1.5783577094640389,9.569462102182072,-1.4738215570409419,-0.00338347506144316,0.05609086766722898,0.159122724218706,0.9818993662538412,0.08718988547214984,0.1536537460857795,0.06827946056805904,-9.505969895276996,2.004446584623523,-1.3618111048840722,0.6770574039077516,-0.05243268519497764,-0.3421486229323557,0.7759521688020116,0.09568796457980008,-0.007763873908584344,-0.6234434757281218
9.039627055270618,-0.8714001670458488,3.7097404859100678,-0.10152563132593617,-0.5592472206464704,0.027856307131001568,0.3929699178964119,0.3918822301067204,0.5487843349502933,0.6251709486758282,9.763255245843846,0.9384995251530261,0.18483211336469313,-0.12079261657580279,-0.040690386801400705,-0.024247641211263243,0.5124015977689634,0.476338984664725,0.5341148906415975,0.474623069274247,9.458210117836053,0.9569580712570869,-2.4213043403411474,-0.29646676917725784,-1.1109120147293698,-0.017322436308411307,0.5788531860286571,0.5362595107647297,0.4622859297357054,0.4045323785647326,9.638402829620258,1.800466678710747,-0.3090397976894541,-0.09318261740196597,0.5071727717388026,-0.007838357746994729,0.5510907423556407,0.4602311692113771,0.536717930816787,0.4431931038678108,9.454963939944065,-0.7347138866633626,-2.5099173317028325,0.09403834554719724,-0.13624438414050938,0.021852901035396412,0.5355773562478973,0.5848480831296927,0.4191797614711041,0.4420383950598242,9.34609344524918,2.9811989791568423,-0.016498840760504133,-0.0018933247770146627,0.2197585916590013,0.011773153655760059,0.5682142119261199,0.4198881598507299,0.5736492315263045,0.4144310578994128,9.581126397180673,-0.3676614332405874,2.0744182475340045,-0.35342718291869124,0.22446281169828325,-0.21222625492749242,0.6930077194779166,-0.1201604113070163,0.03162418180333269,0.7101420191932144,-1.1338939606691187,9.636037164354379,-1.4485837031217488,-0.024128589543524287,0.0504650075744302,0.381707623327167,0.9768575807210338,0.06156962177968946,0.1920407863871182,-0.07126559496399636,-2.9004837903057115,9.253514046508043,-1.4824656305641828,-0.02049558460761608,-0.08780828593048037,-0.1434543016041544,0.9734897045321228,0.05215624675803221,0.1547590823649246,-0.1601472682241005,1.639653313496609,9.55944876651469,-1.471691247411895,-0.008660104685565134,-0.005783628887995093,0.2193770987682061,0.9816642292229958,0.08758166640754672,0.153499928216944,0.07143223929495632,-9.530747329426422,1.8608021426252794,-1.3921665346960035,0.36251419405444124,0.01706693657280034,-0.4037751731468604,0.7711737188666576,0.1013862999218198,-0.01150594814774357,-0.6283944037583034
9.113161173890191,-0.8986057418288242,3.518488179047324,-0.08519328110548419,-0.6732354620930713,0.04637720383661634,0.3985706072706,0.3983669787458884,0.5434621160752539,0.6221689076575794,9.761847504022448,0.9484104310936637,0.20731287711679014,-0.13893377879888524,0.09563681440450844,-0.04583058427248221,0.5131771654634266,0.4744865827834536,0.5338452007409344,0.4759422036878797,9.308104225205195,0.9869986483595187,-2.936107332875239,-0.4812027317440378,-2.105686760874712,0.07878282666762892,0.5950010026929351,0.5437326860436978,0.4430533946655698,0.3924694413548936,9.641839729546987,1.8066240557934548,-0.08392216006171527,-0.2641110580470359,0.8241929160377273,-0.02836309382567144,0.5464753997519115,0.4535908733893638,0.5417057305071027,0.4496385866222214,9.442447382344909,-0.7515889798832766,-2.5515488175428476,0.031966555837474014,-0.14680007764269656,0.047851911109919334,0.5355720643673743,0.5867782930544828,0.4181652135928449,0.4404448351498597,9.348103890066943,2.974956366844535,0.04166174348290339,-0.047452675728579044,0.15469558626378271,0.024277940063753757,0.5663851168461486,0.4187354656097544,0.5751672088909927,0.4159942199986703,9.567182078683796,-0.32182238399758306,2.1453106048832296,-0.3418228467085453,0.23646763317366165,-0.2389060156198681,0.6947860669359781,-0.1275147680001862,0.02933499173202333,0.7072140859694293,-0.974471551242113,9.655614291853864,-1.4353676856996411,-0.06700675365652922,-0.028432505510368668,0.5877522138750992,0.9773328225691207,0.06244255598699264,0.1921980870898895,-0.06309814933794905,-2.9541554111162482,9.240537814563334,-1.4586098628977768,-0.04108439895852678,-0.22417075814127133,-0.15556954939933515,0.9734482994146488,0.05082958188964361,0.1528429267030998,-0.1626462472007368,1.6996669535171656,9.550927250088849,-1.4598211000979997,-0.09811738953193683,-0.1283237388862706,0.1397843660359126,0.981596334726891,0.08740148520867616,0.1524969770059437,0.07466115481359412,-9.55369410663998,1.7180879408885876,-1.4176742496489423,0.3329664383818142,0.030991961124128886,-0.4006529842317924,0.7663798408867227,0.1066130426975939,-0.01492424672531848,-0.6333031386854832
9.193024273027566,-0.9106038029931763,3.300961404306273,-0.10953941315065319,-0.7272330642040322,-0.028012716745952085,0.4056441753081975,0.4048713589040154,0.5376374949088372,0.6184479847536885,9.759379004745997,0.965845108358123,0.23934436310795484,-0.16674351070670285,0.09967844940539407,-0.06295195608779533,0.514108778149017,0.471986634952144,0.5337830692974087,0.4774897020754628,9.058763842342755,1.0002312614495676,-3.6295342363084493,-0.1985276212375123,-2.5382638681240484,0.04706206909098355,0.6145620767834927,0.5551657025460187,0.4163133384878599,0.375216871546628,9.637246407512098,1.819733143812397,0.22102299166433823,-0.3403075874719007,0.8994305600937704,-0.046881240786032334,0.5412202766325025,0.4434965978722533,0.5475651050771664,0.4588723521191989,9.428113036467474,-0.7679537409126087,-2.599112112196411,-0.02765250921980831,-0.14515628737441033,0.06060753518283189,0.5363626122739887,0.5881274042544963,0.4161527202988684,0.4395886917418863,9.349729062443512,2.9686678764144583,0.09106064211083578,-0.08660337212768646,0.08987831458577342,0.024786754095131945,0.5656303721092423,0.4171753209441024,0.575627509005841,0.4179473706323268,9.553338674040807,-0.25639928258671896,2.214745031249839,0.009198694125884047,0.21208808614716756,-0.2494550973890545,0.6971749733742311,-0.1322176523686506,0.02940460984187938,0.7039892881449331,-0.75982230119971,9.679643800546915,-1.4043512008367487,-0.11238719515838644,-0.033914595141907686,0.7842890603158481,0.9783020829006069,0.06306643745195534,0.1904160861996868,-0.05185916674847548,-3.0188874405862665,9.226847395111449,-1.4137229172092671,-0.07809692641802152,-0.28721179083374704,-0.1809866722731639,0.9737747732165595,0.04878010434551374,0.1483830259572161,-0.165425723739868,1.7196260026331927,9.55283510169616,-1.4246906409885143,-0.16616890199776602,-0.17334344148809733,0.06930653599017007,0.9821673588235893,0.08550644299335276,0.1490785386188553,0.076233305001068,-9.575079295886686,1.5645993810566325,-1.4505097678951038,0.40008367273638396,0.028054069943154222,-0.46518956046437154,0.7612207881181645,0.1110892103684138,-0.01665319933875014,-0.6386898856473826
9.273523636235106,-0.9145039489745422,3.066389257198742,-0.09568285089101748,-0.7775739226354578,-0.019369315998897317,0.4131900979746281,0.4117860661253815,0.5316745390785941,0.6140263538124929,9.756454322883979,0.9827474810758177,0.284299000811756,-0.16606980395077656,0.1082142230587844,-0.052269691190272416,0.5147874409906538,0.4690780054314104,0.5339379047971758,0.4794476292981185,8.68839154288259,1.0048898916099387,-4.442687445025298,0.10741072939770124,-2.864738362073201,-0.03963034615368975,0.6329908002434728,0.5717184555870037,0.3880337429155148,0.3491281551340646,9.62436574917198,1.82540737613882,0.5260620114214389,-0.33334220596379194,0.8992262096107254,-0.02404003847205882,0.5356201773731715,0.4334867812863316,0.5533035202575278,0.4680335997675553,9.414547081158315,-0.7903984100367109,-2.6411719241607354,-0.02437304032390772,-0.12431197894052148,0.08895817910786963,0.5368499016506192,0.5895128240757728,0.4141467056259033,0.4390322534474417,9.35429319744291,2.9534373716635103,0.11261729066748342,-0.0664867858893162,0.02950416495224939,0.06076874579233774,0.5652062666250762,0.4167385217107191,0.5753692415907865,0.4193102866867816,9.539460044539592,-0.16386694820989606,2.2823625273102452,0.1311517596203224,0.2176500126242072,-0.2894652562045219,0.7004129536082898,-0.1336378247355426,0.03244537483434468,0.7003641366243157,-0.4740628741909838,9.703422348980894,-1.366693205041658,-0.1208788095946273,-0.007338954489402583,0.9404920441357473,0.979019889170918,0.06395528951821566,0.1898807701193742,-0.03708194559725628,-3.0893248700617923,9.21195366344969,-1.359034673286488,-0.08836006517739002,-0.29230589916429983,-0.1884775701194958,0.9739482620538062,0.04609086883848415,0.1446134586249485,-0.1684854956268175,1.7291202799619816,9.557868117113754,-1.379674758590197,-0.1864699615767217,-0.18237407128950717,-0.0003653613011836386,0.9826857774896375,0.08307762985471372,0.146482800460383,0.07726292323354995,-9.599115700480038,1.3832029962825703,-1.475624374039329,0.5227037451234222,0.006223603152694074,-0.5154997446078227,0.7550044621645243,0.117832552860975,-0.02133968562498285,-0.6446924611125447
9.352622076361548,-0.9131492544019038,2.8163772317116926,-0.12127343559241309,-0.8044295998905897,-0.05704645995851773,0.4213721414341863,0.4187486260186867,0.5252778708848134,0.6092440110410176,9.754059410804233,0.9992168358924026,0.30816910948239024,-0.17057176266958593,0.01239662376260604,-0.05524089330243031,0.5160402931672429,0.4666907586839166,0.5335149609739721,0.4808990933697396,8.221812852419946,0.991458696443013,-5.258680402631335,0.09141091768447984,-2.9114688328108236,0.018782067606785358,0.6501006929976699,0.5887126559360398,0.3576781311738008,0.3207068009642151,9.600526201488499,1.831790909598729,0.8435681156474487,-0.42762713818924714,0.9199231127890094,-0.0653635665114397,0.5302556191055935,0.422377493182571,0.5587366246418441,0.4777442997499705,9.401746117346073,-0.8116072854573468,-2.680061935323224,-0.12555232562831173,-0.10642160148350938,0.09312640971448934,0.5377778913843198,0.5902775029058092,0.4116310374374708,0.4392349008442623,9.358474923830437,2.939112836257172,0.1353467702736108,-0.1772182240635794,0.03920674460668206,0.032289381794233796,0.5654501505322721,0.4157421913328362,0.5744949901897829,0.4211651265900864,9.522574472430183,-0.05792604322509781,2.356783917292792,0.13597546035563382,0.2393273136146992,-0.30997234966302645,0.7040906659920863,-0.1350967402657305,0.03590625876781771,0.6962154446819553,-0.17270490802421817,9.719710052653078,-1.3212346587649735,-0.15096830838340689,-0.1626838827018379,0.9532214903967285,0.9799546287822052,0.0646422241582795,0.1872303786215797,-0.02133292538357725,-3.1626877983422665,9.196180109911877,-1.2950754530375685,-0.07277681618347973,-0.44277874329809974,-0.183393067441741,0.9743965004149122,0.04330622384283452,0.1387075443161382,-0.1715699510562172,1.6948983682437198,9.572067401362439,-1.3221515765794736,-0.2599637791723449,-0.34079997940025314,-0.10903883943103498,0.9837613585256049,0.07949070634044118,0.1416627225816157,0.07633144901099437,-9.620420317725575,1.1901771490500335,-1.5049843018316702,0.40841584104483963,0.039441582012306575,-0.5462465055973761,0.7483648128393062,0.1238190984403295,-0.02450771603508,-0.6511668830800273
9.42715577771788,-0.9033823326034581,2.5592950217866908,-0.1322079489439789,-0.8168032682214691,-0.07927240578639781,0.4299605285848987,0.4254726868053528,0.5187501610447119,0.604156608055986,9.752822021377993,1.012675846166962,0.30315216107071813,-0.1673796296995705,-0.09357700987448506,-0.040539243385317364,0.5180386391931355,0.4650665652808709,0.5322202506522611,0.4817578883177959,7.668439783578302,0.962655958502863,-6.041834454877607,0.21354510628799742,-2.934069267866399,-0.02856022990605811,0.6653062207001551,0.6053576875732972,0.3262905385041367,0.2905928204141786,9.566211585036868,1.8366493949801435,1.1625083713166457,-0.4426780207413522,0.9211268304006724,-0.05627130860115433,0.5252219632719269,0.4106020305761118,0.5636896464064899,0.4876493046418534,9.389933285092782,-0.8327273582648679,-2.714798224466003,-0.1429406418589396,-0.09668205757270698,0.12018674530085185,0.5390244179787078,0.590492746667214,0.4086823117145877,0.4401701501098699,9.362337368921647,2.925088069766451,0.16652176580118305,-0.20324670222081312,0.037174174935078776,0.052204446208779016,0.56612766350934,0.4140293508695582,0.5732063592005211,0.4236904943470777,9.503387122418644,0.059667575693712095,2.4329390612559503,0.20375715055259064,0.25014503628483653,-0.36069750136352424,0.7081162683661135,-0.1360415494832894,0.03999865966707972,0.6917110339688628,0.140767912230436,9.726770525379317,-1.2720708123262394,-0.15146507002250126,-0.14294318975484288,1.029085737665556,0.980808377026389,0.06518912202218785,0.1836881674118122,-0.004895209671401687,-3.238258494627994,9.17926845745803,-1.22626225469946,-0.07287598570341453,-0.4299581429611876,-0.18925663631939976,0.9748927669851791,0.04044445027417164,0.131956400344975,-0.1747450935791844,1.6434646447329737,9.589569834221182,-1.258591232020372,-0.2559235185769241,-0.3309971959482283,-0.1265103010315322,0.9850162351662477,0.07541885145030633,0.1359806550697479,0.07459406646396369,-9.639519500698722,0.9846966873914912,-1.531108674331203,0.4820670319096326,0.030887119604694202,-0.6040473555919996,0.7412142149622567,0.1300821090675436,-0.02794072259833455,-0.6579509468487054
9.497213390042024,-0.8850460222003821,2.292827840212924,-0.14133561925165755,-0.8481066246007865,-0.10442452815921927,0.4390405341498297,0.4319940985347018,0.5120007054712484,0.5987318145894424,9.75311682773196,1.0226205778200967,0.25671625794423963,-0.1384152892237458,-0.21337771772681063,-0.026528671864352246,0.520921779182281,0.4646980557332896,0.5298775334109181,0.4815869771470453,7.0422970572599155,0.9216035640009996,-6.767032996967942,0.2867235844225566,-2.9311614190779873,-0.07918664569004809,0.6780974356979563,0.6213087080968449,0.2952799845236511,0.2587838628713116,9.521332079082338,1.8359915844799655,1.4867198804613513,-0.4797319688268277,0.9328461907447354,-0.06829433484750538,0.5200296931846213,0.3983858876824845,0.5684531071703267,0.497713640209055,9.377409049812613,-0.8585542485081528,-2.7498455608638817,-0.18355149782167546,-0.09414588262419249,0.13905126305765841,0.5403033838798773,0.5906526445329493,0.40536919400411,0.4414493441230213,9.367209281347831,2.907026887934182,0.20327152318648758,-0.2644281255398505,0.06696859432336158,0.0520171634246168,0.5668639898907198,0.4120577979155853,0.5716756386078747,0.4266855427178323,9.479986666649035,0.20655093018494153,2.514807165696556,0.34503097252414816,0.2642828793059592,-0.4191422302383462,0.7130738128121962,-0.1362528004744272,0.04519657198976473,0.686234786151742,0.47932043441927824,9.722277238763201,-1.2226202974688454,-0.1624432953738422,-0.1617182928221141,1.0895519068877588,0.9813653966526564,0.06585235729560443,0.1800593619749683,0.0128082573582022,-3.314135463136312,9.161212870310813,-1.1560729555650548,-0.0700725188450203,-0.4516702379632227,-0.19358681046616522,0.9753205409554133,0.0375641141271446,0.1251449771121749,-0.1779817811571616,1.5823346702929892,9.60818284370554,-1.1929472135675516,-0.2684480246743786,-0.3568158595836261,-0.16418398167672793,0.9862782892979017,0.07119425553168383,0.1302046530208536,0.07234129091060583,-9.655919028915271,0.7572781418724719,-1.55699326459057,0.46488778456892593,0.03650984464389653,-0.6410623227039876,0.7332221376354682,0.1365582420558001,-0.03121845117551387,-0.6654040514710637
9.562134681725603,-0.859782857361325,2.015907526579056,-0.16872311641016996,-0.8625081068263992,-0.1264523284216857,0.4485291857859027,0.4384406924725564,0.5049849993591664,0.5929430656518745,9.754363281660519,1.0282099899578852,0.17388977304503797,-0.11754699568252318,-0.33387176416641356,-0.019650609529662303,0.5244231778535973,0.4655698236730154,0.5266834267787857,0.4804473309027404,6.343100363221511,0.8730855318429949,-7.4323035996856515,0.2700580887295622,-2.9330704569332844,-0.08758344686180079,0.6891414452265557,0.6360546575478626,0.2638533628915828,0.2256101592870497,9.465429459462776,1.8301837301866124,1.8145848483520068,-0.4737248489823842,0.9663936000842515,-0.05876233801825144,0.514795446547482,0.3856691272508466,0.5729385189189723,0.5079236419369386,9.364577696404247,-0.8883570479150044,-2.783939224613683,-0.17128132784391703,-0.09385060575855733,0.15932322413826608,0.5416598586105248,0.5906423164537321,0.4016684302263858,0.4431802384399227,9.372344950732572,2.886284947217299,0.2553573121678123,-0.26468487952467057,0.07987521511396624,0.07196394522940629,0.567586858983432,0.4094058237049008,0.5700326549502949,0.430458826505104,9.45382683390599,0.3804277891306582,2.5918092475545085,0.44276241066982225,0.25583737900517667,-0.47308651701139054,0.7188048000580086,-0.13460878731807,0.05196690188834217,0.6800732128958266,0.8335251228669449,9.704259051976576,-1.1740524072548597,-0.15611923879981915,-0.13427957660913728,1.1398965942322645,0.981596126016099,0.06658967004222999,0.1762212025728477,0.0313201053260217,-3.3909993605863504,9.141555857660363,-1.0859347077637045,-0.06906368072148968,-0.4210971662710114,-0.20247342211093297,0.9756694435476537,0.03474057740160549,0.118248239351469,-0.1813272817297291,1.5159776045109492,9.626752110757662,-1.1271155190633693,-0.25093135663620814,-0.32763507833978495,-0.15733564681960122,0.9875182486662724,0.06695393598801486,0.1243165146735404,0.06978741423949117,-9.66845560161197,0.5214259538484539,-1.576005120806031,0.5447221172068617,0.018669497743504793,-0.6804878171101579,0.7248084419420381,0.143284440157198,-0.03496373860303422,-0.6729783270516906
9.620484119172623,-0.8258229495546219,1.7326087175055636,-0.17829416291613737,-0.8837469736339651,-0.15156559953333326,0.4585136763189401,0.4444571251074593,0.4976786506560782,0.5869744741050057,9.755135540980381,1.0344121696890722,0.04984964602412805,-0.0835104519277067,-0.43493080399494743,-0.014652944743484286,0.5288219933974051,0.4676188282878234,0.5225697269568965,0.478122171832799,5.584228333605412,0.825417494108337,-8.023194212191033,0.252553006488749,-2.959577852457622,-0.0963165423760342,0.6988605147571476,0.6488314096990987,0.2317342160083475,0.1921224500995434,9.396669568562608,1.817786721208825,2.152804351738106,-0.4457464745208677,0.9948982632557792,-0.057314879661971165,0.508656943415797,0.3728209510193189,0.5778477337934219,0.5180392349482381,9.350481329657006,-0.9241702699198767,-2.8194859459126413,-0.14567422823516188,-0.10128390763094723,0.16188659414721834,0.5426131495382897,0.5910892181330905,0.3980934438353111,0.4446415591578139,9.379308888062008,2.859238170508347,0.30013379097004894,-0.23503036009175515,0.06777613162227869,0.08209165969678534,0.5679739279978886,0.4073929526602573,0.5684369563382821,0.4339539444529527,9.422619529004029,0.5852029442285672,2.6662434964043222,0.539058805645036,0.25980114418233063,-0.5604779357947484,0.7254682970983358,-0.1323345813584134,0.05928641093542054,0.6728063837095563,1.2029565749470097,9.67089384615431,-1.1274448639587178,-0.1565968526377281,-0.09804861144519902,1.1639148161747674,0.9812971373558094,0.0674841480394607,0.1730436633973159,0.05057379300307959,-3.466780037023201,9.12088529777924,-1.017495783247469,-0.08009971495275267,-0.37860595370265787,-0.20133650321360863,0.9758470319437199,0.03189768776269638,0.1121899726547893,-0.1847119860695126,1.4575600401588282,9.642912256186847,-1.06369180357356,-0.23861553083772413,-0.2819490438087399,-0.1407692141360027,0.9885558233607032,0.06298598034370308,0.1192916416863528,0.0675252145761845,-9.67702347337342,0.26113619264631016,-1.5880444234490991,0.5940073501048726,0.008188221952651814,-0.7265130294163546,0.7153597858037803,0.1508035842610268,-0.03955285280382719,-0.6811418557568428
9.671705003355079,-0.7850883525491426,1.4420204800624625,-0.19575179325300743,-0.882251896099582,-0.1632334419581527,0.4686951788857173,0.450423253873749,0.4902240862323422,0.5806238601166291,9.754470461524065,1.03672095692482,-0.10368875883943733,-0.04846529081360526,-0.5381201955725928,-0.0068656175366819195,0.5335280326117311,0.4707989697041431,0.5178784700193234,0.4748663589194518,4.758194407149687,0.7709024043336882,-8.544109921880908,0.25126481894254826,-2.973495792971597,-0.0843160893056315,0.7070169122854087,0.6601905731189273,0.1986382982237923,0.1575383108518835,9.315507369921422,1.8011991038878956,2.4926074971827434,-0.4590979066167499,1.0240466797380727,-0.06093360721475201,0.5022671379443344,0.3596789570554397,0.5826846002602126,0.5280505909591564,9.335355155175101,-0.9629140597874337,-2.856433262332699,-0.15721732858611678,-0.10833607906660443,0.18024962470522823,0.5435514686786547,0.5915759513863669,0.3943148276724511,0.4462124060537062,9.386721351495892,2.8295224907414243,0.34618173412241005,-0.25554962097493406,0.07064219215461735,0.09223888675896727,0.5683710492061755,0.4053159587204857,0.5667065018322469,0.4376266271741498,9.38629769957773,0.8245618452935409,2.7303186931081114,0.6369636229781274,0.24097994007182189,-0.6171860464425454,0.7330941641595444,-0.1284003618836853,0.06776935086177713,0.6644498541102487,1.5763075515477263,9.622251135189172,-1.081975382383978,-0.1582486488234614,-0.11754303462277138,1.1897618474523173,0.9806080881575375,0.06837805353857564,0.169765783768123,0.07008422002055517,-3.540000211365936,9.099858801059952,-0.9506612577333601,-0.06726773032062233,-0.3866261950226034,-0.20284115611821743,0.9759609794073215,0.02916169920156525,0.1062835229726903,-0.1880254629524757,1.4049399636292594,9.65724325123037,-1.0021941460482349,-0.22928426722364156,-0.29093126847635103,-0.12040376942904657,0.9895022409478771,0.05919093145910564,0.1144163156776741,0.06550309533815744,-9.68006519985692,-0.0046548333271419105,-1.5910100361528083,0.626179433095877,-0.00647427918519114,-0.7290094889378891,0.7055280505342916,0.1584949358057262,-0.04458735879705595,-0.6892905720149691
9.714218130116704,-0.7381594962321685,1.1518381175281325,-0.20179843198918904,-0.8947279340530323,-0.18110969118761644,0.4790700976193075,0.4558743134089587,0.4825749726846171,0.5742750627350789,9.750083386789266,1.041706642647874,-0.29334553922189915,-0.015063839379129182,-0.6137657889609063,-0.019851587696582244,0.5389489792126835,0.4749967513362305,0.5124833418444503,0.4703965437347282,3.8871651300943895,0.708242335001078,-8.979092899865485,0.2365912023305486,-3.0080860994345193,-0.012397131454406213,0.7134951386182565,0.6698298888345177,0.1645102238356823,0.123243634503314,9.218396849734228,1.781219198517845,2.843289523280281,-0.44266650033627414,1.0575125239540215,-0.07107556921762716,0.495276486939851,0.3459805121776464,0.5877715117744882,0.5380737278702111,9.318072343880864,-1.004584190252656,-2.898240430905469,-0.1479214493021493,-0.12676643315397162,0.17885840315041027,0.544465504562204,0.5922742957738197,0.3903402497545637,0.4476638943772386,9.394727484355332,2.797163948788406,0.38919219007747685,-0.24076096284347717,0.05648987050082038,0.09203330259232875,0.5687444965325564,0.4033978107606981,0.5648748985931872,0.4412666460052713,9.344587443906928,1.0910093722495884,2.779511614231877,0.793820793046639,0.20975789885762636,-0.6870951184419269,0.7414152955803982,-0.1231787826731225,0.07683669345065834,0.6551537754742529,1.9524934686446487,9.55790206219981,-1.0372134384279783,-0.1542156741613188,-0.06458616165212352,1.1661174937164338,0.9794764946405405,0.06925929246365893,0.1666234908684628,0.08980845809231923,-3.6129929575383177,9.077681965151864,-0.8847329084585418,-0.08747122968715002,-0.3223688712149165,-0.20093041360422734,0.9759713277583126,0.02643921637148116,0.10074624129578,-0.1913926072138389,1.363950732773852,9.6690186048141,-0.9428212656894008,-0.21134831234305612,-0.21726577831727117,-0.07887163258875524,0.9903098488523624,0.05562757346302248,0.1099783979252627,0.06400568979723506,-9.677570293967596,-0.27741264842732244,-1.5820253777587758,0.6951918861948768,-0.029916240115698267,-0.7389168945332233,0.695206302017665,0.1665875327969157,-0.05044542651144936,-0.6974181317514178
9.748745867253607,-0.6830607707283617,0.8561350825345543,-0.19238152333083944,-0.879673644758989,-0.19940379401351488,0.4894962601496424,0.4613590543753205,0.4749613852611939,0.5674089501904174,9.740796201351875,1.0487391854271968,-0.5024022015901456,0.021337353079498154,-0.6945516297443006,-0.02553782154400886,0.5445530234870103,0.4798589290100392,0.5068791070037334,0.465049442257048,2.963148051253347,0.6351431147206165,-9.330147524803365,0.22225209317473898,-3.0082381189819816,0.03871076431065307,0.7182421276276145,0.6780027823835736,0.1286205340445083,0.0888663682345324,9.106723014468038,1.7603866370848704,3.194413944442344,-0.4132018738868914,1.0887679717006602,-0.0714424464327349,0.4878903324568424,0.3320695499246096,0.5930215047011308,0.5477392924284562,9.299288118327137,-1.0457903172460516,-2.9436791778532188,-0.12484781092931872,-0.13487948303976474,0.17496162361100223,0.5453881727736388,0.5931086547455464,0.3863406131612511,0.4489039933958577,9.402713511332207,2.764959545183101,0.42482326392426695,-0.20622135770447042,0.031222843464223896,0.09719280180869391,0.56917447558049,0.4017488029768269,0.5629871336924368,0.4446164672514227,9.2966870921384,1.3953226338821179,2.8039380954517497,0.8513115524831023,0.18358957223811392,-0.749435841554406,0.7506862697405082,-0.1156080204737626,0.08707032688924081,0.644611253547919,2.3171163843422535,9.480835509956064,-0.9924307741925363,-0.16252327729333396,-0.09553576830349825,1.1681731695082402,0.9779240778944633,0.07001058491402011,0.1639452865227015,0.1090181585849334,-3.6817038944927805,9.056032746268565,-0.8201489741016839,-0.07309147315865286,-0.3405015624706499,-0.20116542226438977,0.9758904069880712,0.02369352143605547,0.09595481988602428,-0.1946001108202575,1.337968543491902,9.6779909997151,-0.8857783244091706,-0.20496429913491301,-0.23366290765639414,-0.04726757214373188,0.9909377419170482,0.05233589293145099,0.1063505806677713,0.06318939742581224,-9.668918694205978,-0.5540385177056945,-1.562136542849539,0.6985933020250945,-0.027756631847504598,-0.7523835407703483,0.6844840507084052,0.1749742710989626,-0.05691537116344317,-0.7054262748895364
9.773567429950372,-0.6224688812938592,0.5720939574504729,-0.21538395299802965,-0.8566213499304773,-0.19523286366209264,0.4997257592980599,0.4661599959897936,0.4675014353676495,0.5607240244201782,9.724485499171598,1.0562218752146748,-0.7443682935553037,0.07929129335291012,-0.7648743876242812,-0.023268617474135177,0.5505883041496303,0.4857759695606141,0.5006990355532905,0.4584481459522814,2.0158059098988943,0.5594497949883817,-9.584283324729375,0.2473756439835113,-3.0355728251929426,0.06413862846843796,0.7211462221417506,0.6844133841882603,0.09223843561672196,0.05494103047480511,8.97877492369719,1.736875238450858,3.5496920040471287,-0.3424499178023913,1.1092998651673158,-0.055958744079355624,0.4795406599579078,0.3182149813234328,0.5987927007388633,0.5569805047309283,9.278541715195269,-1.088518285852041,-2.993283979002548,-0.0655703441947683,-0.17064265207188745,0.1592439472835928,0.5460116622704547,0.5944530147637316,0.3826223459050895,0.4495520195895594,9.412001191846405,2.7303322485781885,0.44286902822889995,-0.12317147003738199,-0.011286836423813527,0.10504282434621774,0.5694079046590893,0.4010894223980455,0.5611822825188542,0.4471871634328033,9.241574607070701,1.7097948235350773,2.812007435684772,0.9184055322174351,0.14704927644152244,-0.7630503584397352,0.7600950574089089,-0.1077864299129295,0.09692437942072578,0.6334376479994536,2.680816254288261,9.388695552001924,-0.9510551826500035,-0.154461316020121,-0.10478249121711916,1.1446056329982368,0.9761114668205576,0.07076052711720165,0.1603985244445573,0.1283419865029522,-3.7529790366855975,9.03199237504757,-0.7589470658320778,-0.05707837415387551,-0.3283593258412901,-0.20660639034579242,0.9757808395279635,0.02126369486684419,0.09054840943117395,-0.1979913989045911,1.3184497297554245,9.685277866376317,-0.8332876178176445,-0.18305847055133934,-0.22576537189375606,-0.027201776301236318,0.991570123399992,0.04928327866982258,0.1021282000332577,0.0626871564361023,-9.654173322619924,-0.8272724885002166,-1.5322643862550587,0.7639393265928478,-0.06677148912483774,-0.6912602704860489,0.6736260928236126,0.1833817108864162,-0.06371422258603517,-0.7131195783456107
9.789603028242938,-0.5641893039141549,0.28746203286564004,-0.20429320305347598,-0.8481219597562075,-0.1904215126509401,0.5097818931648495,0.4709024606267648,0.4597555628399969,0.5540741073309579,9.69986040330467,1.0614399641411782,-1.0106252751379239,0.10312010494770908,-0.8828659207313487,-0.03357990574721745,0.5567198112924884,0.4926139808927612,0.4941412025263878,0.4507981693720792,1.062274072413992,0.47364652356856324,-9.740736275634493,0.2442420711956988,-2.820918954239756,0.09813590722073674,0.7218467521705116,0.6894550993673272,0.05585317711271019,0.02166460116616623,8.832631650928993,1.7138826342804199,3.909299192967523,-0.3078130266885908,1.2121466575274653,-0.058898794839570195,0.4702253589597594,0.3043355282069111,0.6051700012375164,0.5657183642629698,9.253267013028177,-1.1305530521876879,-3.05529171076393,-0.032210049716817526,-0.21385529931947964,0.14634164454159668,0.5465948330968543,0.5964334125278624,0.3789723336815266,0.449311966406603,9.421516120791226,2.6966442064207445,0.44703906286996115,-0.08484797458535111,-0.012558890002986656,0.1011326879589345,0.5694745494983723,0.4011997063271215,0.5595824486526493,0.4490044724460577,9.179818489020983,2.030356601713908,2.8010586987711754,0.7677499580185041,0.15552859905361643,-0.7873307809540522,0.7694791749346871,-0.0993328982422122,0.1066731580957809,0.6218163812658108,3.0402161224621818,9.28251299055884,-0.9110026328470513,-0.17508045435430727,-0.12648495043989275,1.220594159825442,0.9738970082819337,0.07147179599801377,0.1569597117190086,0.1475806509451807,-3.825589454506141,9.006306397711292,-0.6993509414964366,-0.05459199432658164,-0.35589327787816644,-0.2306173544069179,0.975566985494718,0.01887551869959824,0.08548024144773164,-0.2015090566912748,1.309714100525595,9.690597676566291,-0.7838072771851641,-0.1877388843161763,-0.2388302795153492,0.011304949659661917,0.9920910380933439,0.04647364458922092,0.09832422243412234,0.06267311844955008,-9.635553067297934,-1.081926240881901,-1.4902236174778765,0.6440336039094947,-0.024088811531144838,-0.6997688745806212,0.6631874287209526,0.1915625975831785,-0.07095463805907315,-0.7200358636426261
9.79763131610879,-0.4931391424104488,0.015172772402082334,-0.1834280313778588,-0.8073584655960798,-0.2540448463074838,0.5195905692309987,0.4751324097280504,0.4526615930892101,0.5471492627557503,9.665795208330353,1.0703323603370447,-1.2891548692654995,0.14140835828110643,-0.7486498482320432,-0.041623600569929906,0.5630085123488687,0.4996988581633116,0.4874333831407178,0.4424151479922343,0.09833917551537077,0.3739699015186948,-9.802228067437579,0.39534258079991524,-3.2838938594544005,0.1450656555670546,0.7202508278319357,0.6933673773856395,0.01885841715353433,-0.01117072456176216,8.672147861794008,1.6899209377073112,4.263021224203393,-0.24645654525116967,1.0316257338831185,-0.03764567237236202,0.4603178037149588,0.290683488192369,0.6117359715456329,0.5739248473384596,9.225695226015176,-1.1720944789313423,-3.122376015470375,-0.017973552011544124,-0.2128403704220096,0.13527165705796754,0.5470820447640207,0.5987500299802222,0.3754551121313835,0.4485901210123908,9.431418979857993,2.6629026528587265,0.43988616644379813,-0.035365349765233325,-0.08746060502521302,0.10395079516417077,0.569459429711506,0.4018984009688721,0.5580645456394839,0.4502861269365361,9.113381434986364,2.35429726094731,2.764352090708571,1.3333933340621205,0.018827257701888502,-0.7482632923560422,0.77872035364983,-0.08965761429624232,0.1165403357236481,0.6098971004682752,3.3844657778756106,9.165949108492297,-0.8752634609488404,-0.12164750436640206,-0.07348468181614776,0.9437399127927462,0.9714310308955869,0.07216181262496138,0.1533011459187998,0.1661721507106415,-3.8969763469925893,8.979454073330043,-0.6451643487945202,-0.042992267893258065,-0.23744649174051993,-0.17626597388386783,0.97529405065714,0.01678900608822943,0.08049417448413125,-0.2050373914715937,1.3140251937037255,9.69322901855776,-0.7410885695818007,-0.12306771453387155,-0.14359747050522678,0.0513349849418689,0.9925209098318702,0.044083614097271,0.09462809220196972,0.06328034987936418,-9.611056593882438,-1.3401795567366224,-1.4377300971715947,1.0134123372586736,-0.16923619753775296,-0.6303104961481065,0.6523064372719499,0.1999787033761318,-0.07865510460629786,-0.7268550093443321
9.797548041832092,-0.4255531322713546,-0.2526197866654345,-0.04650599436541406,-0.8260794188252405,-0.10305002558544452,0.5285867605275453,0.4798087712519716,0.4459945254883544,0.5398781926130063,9.622585921933617,1.0693163472019351,-1.5803288026115587,0.17936460958184544,-1.2309286507560122,0.008078566150488114,0.5689819442592591,0.5075197691356668,0.480386179434118,0.4334885807632357,-0.8566691131807136,0.2547509082068092,-9.769164970340293,0.24036380766564547,-2.0124150835223613,0.045108730983390195,0.7160284981044426,0.6964726202603776,-0.01771564193428803,-0.04376339978562001,8.495090522827047,1.6682718340524072,4.6136615060923996,-0.23703556166242937,1.552337105984351,-0.0509766985995625,0.4498400632904733,0.2770249989610564,0.6186064684753027,0.5815729572202993,9.193445607917745,-1.2104974292124173,-3.2016412276013577,0.051400038434694414,-0.33829133247909887,0.11942260193424449,0.5477794090288878,0.6014484999332936,0.3718230907962837,0.4471521107214545,9.440603383709055,2.6332624439789485,0.4224722082038412,-0.00684887178310346,0.023815970192691716,0.09283543810670139,0.5695158876185885,0.4030021857903512,0.5566403558475345,0.4509904724494087,9.042998800947062,2.6855543684697554,2.6924690910230664,0.3164712288449877,0.22804011569798943,-0.8069503675931243,0.7878067301777255,-0.07755742065458308,0.1273961904638337,0.5975915101834959,3.711909477672386,9.0418155064793,-0.8399615171309088,-0.1934104000302019,-0.10470195162408591,1.512863071333403,0.9686064780901276,0.07279008896399855,0.1504731370638098,0.1840133923730242,-3.9623005721518787,8.954840406510007,-0.5931798404469637,-0.07046340078762675,-0.3553881594121469,-0.2821770143825939,0.9749601039141342,0.01464961868656919,0.0765611193356252,-0.2082704478656416,1.3382234393394008,9.693100979134789,-0.701520666656542,-0.18305318110584262,-0.19917490423292328,0.12084644188615926,0.992753205678561,0.04202148483804604,0.0920718547951193,0.06479229106563009,-9.582859858562404,-1.5817595273584166,-1.3789188754953794,0.02568703203974647,0.19911138714519477,-0.7524976047925993,0.6418353901993743,0.207892708475133,-0.08614982427717811,-0.7330799147620275
9.788496356620549,-0.38989044652047367,-0.5193871262036569,-0.1766021740972354,-0.7791113734110715,-0.23037452922963575,0.5360431991605004,0.4857702675450641,0.4390844883472236,0.5328130515441881,9.545694396305919,1.0560878612654503,-1.9998186647804543,0.23452400171722615,-0.9611118228968499,-0.03377040051775858,0.577374169130518,0.5187301140791527,0.4695539742635152,0.4208054215687003,-1.4606207062069456,0.1745944795133289,-9.698947570724801,0.4536687926146421,-2.7605522610244164,0.11975378816899582,0.7122480547663907,0.6977548115213618,-0.04056077775473289,-0.06477464618361613,8.234565606251904,1.640069353610793,5.073226008585325,-0.11284846305103208,1.2410914867124836,0.035536286813285425,0.4339830696478226,0.2598450068946629,0.6286806546649245,0.5906774941548454,9.149417391204128,-1.2575505098654514,-3.3080179362668702,0.12724758268111833,-0.31575637927707934,0.0953841795192339,0.5480162773415602,0.6058881449969111,0.3682233170900768,0.4438347713643907,9.450152518334432,2.5986966685097688,0.42224903455923507,0.1357257840861247,-0.11367746707146205,0.11922686003586605,0.5681032598611702,0.4044959213683188,0.5565106584575836,0.4515945335747692,8.950757735836403,2.934485922776988,2.740517380448291,1.0950903038557351,0.041704247960057686,-0.625629413398519,0.7951043776376174,-0.07843033616426631,0.131775719653879,0.5867647490607795,4.176250374674624,8.840021632953826,-0.8045042669796879,-0.1062912049312203,-0.09101049134107808,1.0991036201504147,0.9639597729835396,0.07431259562394565,0.1461186590638158,0.20954362713895,-4.0578882903883775,8.915257914064851,-0.5349465431161081,-0.012055261694536641,-0.22798963116853643,-0.21697237464960153,0.9743345051545911,0.01239291346140781,0.07123921852067391,-0.2131751897047587,1.3738691050351555,9.690696737991757,-0.6620496531817575,-0.08236986150013242,-0.13377121071144055,0.10367088505121949,0.9930144182693591,0.03994753054001794,0.08856281257782202,0.0669566138721651,-9.53191729460896,-1.8156744327084333,-1.442630475954389,0.9360778704451704,-0.10986118056476013,-0.5271540507942236,0.6330369315945079,0.2119613441132103,-0.0819628435555301,-0.7400126513211941
9.776160145413018,-0.2859042499813732,-0.7624426543345479,-0.1251908685238316,-0.7235925348545598,-0.21846796356865128,0.5459478606428562,0.4880010872688056,0.4328732597070878,0.5257533768931137,9.49647609682308,1.0563197196586538,-2.221714749265303,0.1902576786713302,-0.8168981545917487,-0.013232139742012873,0.5811462946304031,0.5250797610973177,0.4648928126118155,0.4128376212328665,-2.5806110091909376,-0.009223686000923808,-9.464283152151298,0.5539735423729835,-3.0469648207247153,0.15044028231546466,0.7016881327547627,0.6999088105502633,-0.08494137006299923,-0.1026955934647175,8.073117131037147,1.624389530454569,5.331200635714279,-0.15519073777509562,1.094981975569564,-0.06308751685802565,0.4247757982654361,0.2497916072060901,0.6343045364006731,0.5956739286546685,9.117154530998539,-1.284532843007784,-3.3858363507880833,-0.005176700724463315,-0.2803091511687041,0.07364322157868725,0.5486170617344751,0.608680952873459,0.3654458842572625,0.4415610069540975,9.45965609145533,2.5748963812201984,0.3474561888133585,0.028288866475916274,-0.15264082829790096,0.05174057198479885,0.5687335663774982,0.4077850437159294,0.5547791669051378,0.4499706263359537,8.902850568473504,3.232046923458856,2.555427864606956,0.9036815399618952,0.03830544994056249,-0.5402577739456843,0.8022610420736521,-0.05803704947432423,0.1452617762907006,0.5761145177897213,4.376538356664353,8.744365444489693,-0.7830227724716564,-0.16398650188649283,-0.11241939513191476,0.8741072803995935,0.9618326025091596,0.07444338847588902,0.1434602289198777,0.2208062258654435,-4.102584380004979,8.896473771341473,-0.5032472635768148,-0.027088221398965218,-0.26262525767154543,-0.1702739757299913,0.9740686050878048,0.01126082507050987,0.06811791459227544,-0.2154611243649978,1.3979342046269558,9.688669464817611,-0.639960901063265,-0.12435494871443896,-0.163388134323422,0.09036559008764933,0.9931533931675246,0.03878553438430617,0.08640799159445035,0.06837893645684624,-9.521623512177973,-2.0002960360538737,-1.2541958545222165,0.6611429060641244,-0.09982812231714858,-0.4540905537997175,0.622802206115597,0.22291866778864,-0.1008052030792072,-0.7431439905166717
9.7561612174842,-0.24809879285782344,-0.9960186002910993,-0.1839161178932152,-0.6642620369012584,-0.16603844132942527,0.5524407218107921,0.492971512873027,0.4268096277441398,0.5192512667733792,9.392725077607526,1.0310607552937485,-2.6359634082597045,0.29158460023359184,-1.5800027181492482,-0.008041242616196497,0.588774691323649,0.5362819486916828,0.4537631244068012,0.3998062797065238,-3.068765147402468,-0.09474722091843843,-9.31720253056305,0.056871743875409296,-0.47763819990233247,-0.03762848161656197,0.695979944305851,0.700255957240531,-0.1038986601558687,-0.1202438351475353,7.766138513267667,1.5924409240169386,5.778157439577198,-0.07320474926968695,2.051774095779288,0.13625256590132773,0.4075875701774308,0.2322622847983324,0.644247974172334,0.6040456534666562,9.070092345621045,-1.3278356963105868,-3.493538652429281,0.2992781683853987,-0.44383909252693354,0.08014518151062004,0.5489688772866707,0.6131023277611842,0.3619091204009394,0.4379046654638976,9.468652145179242,2.544372269149586,0.3328809306490042,0.2640069020583359,0.0020346937612802235,0.15501182265307678,0.5675834720959552,0.4097417810397714,0.5545270431793866,0.4499560350262932,8.824848553910302,3.413329189170391,2.5902315521890023,0.6625345836561224,0.15805275212526682,-0.47079260899757236,0.8071918315668564,-0.05824465794329712,0.1496547562026893,0.5680249649608068,4.824281532156567,8.508891225750586,-0.7543920292687819,-0.14190214641218707,-0.09680127830559215,2.0477065183391323,0.9562187855314676,0.07596559059616978,0.1389390541777815,0.2461113619203385,-4.189833311719261,8.85916081153082,-0.45531569592100984,-0.01971801243433939,-0.28586432156004093,-0.3264327527417185,0.9734052562090488,0.009532408509860672,0.06329778710037909,-0.2199652939006339,1.4368686969218805,9.685313559115386,-0.6096822644535841,-0.09846005177592357,-0.1497349792308439,0.1561985465140499,0.9933316993697358,0.03719636540161458,0.08323385597210024,0.07057400830446095,-9.474308556259539,-2.1771580413042195,-1.3157309808394309,0.49989992959363444,0.06052113462005543,-0.4789926937015353,0.6161954776507864,0.2260955275904359,-0.09657826790907917,-0.7482356473023748
9.738178673187935,-0.14085161910044985,-1.17649775792147,-0.44084689627204443,-0.4266557396091693,-0.27811631755487726,0.5620082678640881,0.4919885686119705,0.4206856493206408,0.5148956590059997,9.221797871565043,1.015485646157194,-3.1876464775551443,0.3742944406953198,-2.016669839257403,-0.05219986349861132,0.5990447675883828,0.5505188013975081,0.4392196018405942,0.3809994187552279,-2.915052438788422,-0.061506300360588184,-9.366686355336197,-0.30598112088318535,1.8748046376853178,-0.03935652353027452,0.6981065858758863,0.6999218539064205,-0.09768054036011554,-0.1149569711495087,7.297863705441084,1.5365919310595004,6.373051028902168,-0.03525658611603566,2.8295723834900546,0.23210384539548698,0.3797200519098998,0.2105415721780075,0.6589079575208179,0.6142680457895395,9.013525432846974,-1.3876580651492203,-3.6144798113820222,0.4451652745431126,-0.4816695109726715,0.02059901417057422,0.5472332063340373,0.6204857013432044,0.360345989601423,0.4309107565287412,9.483424558806401,2.495816622163866,0.27901249227842023,0.4620650295242142,-0.0656256013559871,0.17017873423727709,0.5639170388543776,0.4157556000168255,0.5560150312722925,0.4472048069326082,8.784192131290304,3.6490546356490388,2.4006728986715977,1.831561607600285,0.008697254232894205,-0.2548258090613773,0.8116524303838636,-0.03718570991925416,0.1648615187669919,0.5591585060245525,5.4839875742754876,8.10268047465408,-0.7230906861297952,-0.21202158278089633,-0.09973548999710702,2.8899839096765447,0.9460568932955421,0.07915971247361325,0.1338291824072496,0.2842531345566648,-4.288454698185676,8.814629783099061,-0.4049938073448782,-0.03173053546890966,-0.33198628104893957,-0.3305835364483268,0.9725198806346879,0.007606071549897366,0.05879850024934116,-0.2251443221897872,1.481050107049253,9.680571000201686,-0.5797967214243168,-0.1410773235702096,-0.1850694916698997,0.11769140973724113,0.9934279520175004,0.03567190407871254,0.08059019689333098,0.07303177099323373,-9.461566904029164,-2.335705079627145,-1.1205205216885905,1.5340166716700532,-0.28375752834618556,-0.28389872895759216,0.6061092645493479,0.2383207825720692,-0.1164859515032992,-0.7498438418257872
9.724124318198493,-0.06638834392897386,-1.2940417058719975,-0.3312050246280085,-0.32584686086584647,-0.1662224272687387,0.5689867479725409,0.4904257737641499,0.4158059102277216,0.5126812714339809,8.958684631178732,0.9761651691096952,-3.875885941156869,0.35578937534671184,-2.228327874572432,-0.004513059204286263,0.6116208267802267,0.5678768175576283,0.4191645465083376,0.3574030879549752,-1.9661364996378319,0.049288275262985265,-9.610781191225163,-0.29270225721313514,3.394007166791768,-0.038571448558093024,0.7062714207568028,0.7006007695168714,-0.06129946912837942,-0.08112716597486616,6.588768023562202,1.4655913086810164,7.118655756651957,-0.19880945890992696,3.269018484751155,0.11284475581403747,0.3429445108430082,0.1785844284141802,0.6760979514065439,0.6272066840480137,8.953763030987195,-1.444018313034608,-3.7387241441914556,0.25449432068238065,-0.43312967156702936,0.05265733229093447,0.5460973690843328,0.6272772469311895,0.3580846254867257,0.4243540031054602,9.496054405781331,2.4512659247939887,0.23741581380767707,0.25236172468433543,-0.05375640349914646,0.1216790540691688,0.5607808323592909,0.420684105122257,0.5571421583644558,0.4451318424117761,8.746290702060799,3.8255430200964478,2.2599119360701927,1.3749630809696034,0.15603228851370998,-0.18728548021355396,0.8140935285900008,-0.01984261635918014,0.1794372842765358,0.5519603774686783,6.325530014899532,7.467738611545254,-0.6855750772112584,-0.23313261551791326,-0.1197772329246255,3.2839966075329343,0.9298593196477456,0.08312275266211869,0.1262529239947806,0.3354287597044597,-4.3913964712021425,8.7658376059625,-0.35230493350691455,0.002065295011054853,-0.3043782937018381,-0.3046476439978031,0.9715646861277311,0.005823574162024608,0.05329950521694882,-0.2306237398819368,1.502808928320839,9.678932976068607,-0.5466709698367382,-0.11405959758026478,-0.19642932033244911,0.046869022555738465,0.9936864453895774,0.03379640282610934,0.0768624594283183,0.0744124568581891,-9.435687766320662,-2.478033398235494,-1.0286507451558644,0.7738040859393234,-0.0018913711567797864,-0.34574726859528315,0.5979057531448291,0.2475915708237426,-0.1272131598194923,-0.7516807409945306
9.709068674414176,0.01920272167471891,-1.403927645152285,-0.3694161153785174,-0.3594899670829372,-0.23525739639201484,0.576105557125412,0.4883984731514412,0.4112205489457083,0.5103596561223762,8.67877061118136,0.9354900288714811,-4.476403191728445,0.315034363512073,-1.832930941868702,-0.030157452136526035,0.622207623852239,0.5827966295333371,0.4006929101845192,0.335635148863455,-0.9880854354512726,0.09522436401008402,-9.759647342544842,-0.06943469668541825,2.8078472939880044,0.015064912431085459,0.710107126901211,0.7021384755067424,-0.02533615306593979,-0.04590761249503903,5.835609380565652,1.39923768522325,7.7603639748793,-0.18557349577395882,2.8893227753683424,0.07692068844624819,0.3076854440819036,0.1464394318239481,0.6904071282183616,0.6381403902061646,8.90366977585278,-1.4804963109899105,-3.8427323123548875,0.1606718094381619,-0.33694492976121415,0.02701029199352761,0.5459656271373008,0.6320405966055163,0.3556659352191028,0.419461512837397,9.504246144546178,2.422822865282799,0.19280503084296202,0.18272712345392134,-0.08369140350121954,0.0708689914760939,0.5592962715386264,0.4242465047523512,0.5573478075105592,0.4433576494339274,8.722732841914096,3.952694255117823,2.127941725634963,0.8486844799446781,0.20185073568063072,-0.0025167597103720463,0.8147772332037364,-0.003128446045377546,0.1938462486047359,0.5463990345709592,7.040066012350953,6.800991970630637,-0.6564057942616635,-0.15779603340383058,-0.04157985454137414,2.827010965578755,0.912303995736375,0.08674687296780911,0.1196142490884113,0.3819277821902548,-4.4638590889013665,8.730200413587571,-0.31629544759865585,-0.02213733522356881,-0.1562793748375309,-0.19685407637212154,0.9708238414622178,0.004597220189325524,0.04969654482985937,-0.2345425075483064,1.5085478593029467,9.67912375754291,-0.5238810544447647,-0.07249970112569808,-0.0829090338746986,0.011112492149743376,0.9938788582768664,0.03247783378607961,0.0744385333796186,0.07489265739127973,-9.41575908546137,-2.5860396397438596,-0.9426677752137829,0.5312229435418986,0.005844412342525335,-0.17350741663855482,0.591118927766425,0.2556376480771179,-0.1369538491979408,-0.7526429759930927
9.689755765562435,0.11886575915205114,-1.526917960501359,-0.41398246961879265,-0.41187484346787157,-0.28709249679726734,0.5839434066803245,0.4862588036353058,0.4063130692748938,0.5074171493142045,8.40268743659588,0.895317123448281,-4.982732539273874,0.3445661766060172,-1.6400747191474814,-0.04490386519566901,0.6307025954531219,0.5953499725831684,0.3845283795509218,0.3160863356013012,-0.060225433511819,0.12731628437459874,-9.80901391468176,-0.10465190619966432,2.818832796287952,0.10687109080187329,0.7116638616522019,0.7023738676375131,0.007791763574807212,-0.01203272614960197,5.079818231661117,1.3372429602714688,8.28509576144603,-0.2093246543070324,2.7647994051773743,0.01489397569646278,0.2747523885097377,0.1156780423434521,0.7019110205977217,0.6468776041039337,8.865139267419922,-1.5031093891292755,-3.922241533897433,0.07067887965611831,-0.22839500084658498,0.02384762541609575,0.546269319216681,0.6352368621346087,0.3535666903806288,0.4159982636035978,9.508850202396758,2.4066417295011426,0.16220651109590464,0.08474456547245626,-0.059780381942310695,0.036342573570568824,0.5585869391944748,0.4264032417953186,0.5573266507633826,0.4422079952880338,8.71041413429002,3.9558281826276325,2.171926385429063,0.19860582432293455,0.30470462472393534,0.09811293307598136,0.8133487881814265,-0.001678797441622039,0.2001657285388424,0.5462550791722391,7.639500791818536,6.1221554222904775,-0.6346200221864725,-0.10662926208827198,-0.017834191997073257,2.7134144205770188,0.8938439236350039,0.09039749579900597,0.1142677443037234,0.4240450631074353,-4.517399647024384,8.703280594749005,-0.2918318200780983,-0.027637234698531868,-0.07315104050162237,-0.16110574258483037,0.9702023904673118,0.003569284605537097,0.04805333309599685,-0.2374562252653818,1.510740248858922,9.679464761208349,-0.5090475312078294,-0.034642267677387574,-0.016903797231795706,0.01312830162345429,0.9939488198336494,0.03167082534576743,0.0736441650764939,0.07509486882204218,-9.40285681449509,-2.6483980009303143,-0.8976366506458788,1.0698921771335976,-0.15444618826241782,-0.15287802592205152,0.5869984188271454,0.2612611525519349,-0.1429530252677727,-0.7528212928899245
9.66450091727033,0.23260345708917704,-1.6675275044413989,-0.38983589199522406,-0.4775958990859668,-0.240661702351063,0.5926994845684317,0.4839964199487958,0.4007238250594768,0.5038603005782121,8.139319628773087,0.8500104505386317,-5.409615566007111,0.26229144678082617,-1.4004744645751952,-0.029152203578399427,0.6371262105704482,0.6063310420334403,0.3706806277354129,0.2983768280085835,0.8216315384614458,0.1476379041546413,-9.774426190974953,-0.026823899702264044,2.606858863565798,0.04322108606845726,0.7113814748038912,0.7014374495550543,0.03860077575483122,0.02078176553295054,4.321875997454928,1.278389008727262,8.713367848175787,-0.21109215039898532,2.590918624349701,-0.01761019216568524,0.2436817374911916,0.08573103171650648,0.7111855938072493,0.6538229517041502,8.83872735177167,-1.5156706223168939,-3.97667851593103,0.017760060992924435,-0.17543874182011265,0.03117886356200155,0.5467894193959465,0.6370738027461369,0.3518469797973123,0.4139589393873863,9.51134095518343,2.3981001524181185,0.13835557149857972,0.02328414093899651,-0.046105525982820424,0.022680529553869476,0.5585592496925387,0.4276218847978387,0.5569696247679758,0.4415154870564252,8.712420770793868,3.9330409266187654,2.204944300154442,0.2810265393228659,0.31398681845133913,0.29131608928695957,0.8107349956113884,0.00161836672299796,0.2077424795328547,0.5473108896940508,8.1433219749563,5.435521703216261,-0.6214718399889899,-0.05323138541561473,0.0007372412640238579,2.542660057350202,0.8746655779663327,0.09412366602637925,0.1094608214705453,0.4627301489827186,-4.552900662518064,8.685087382139887,-0.27829984157328885,-0.029719513851810854,4.884801040991164e-05,-0.07776618231089165,0.969752016317804,0.002897006159918129,0.04751617297919652,-0.2394051952407757,1.507468298119406,9.680308453187019,-0.5015045662183455,-0.01571696431403755,0.020464949596612658,-0.04927426545440443,0.993974359596792,0.0312710547759824,0.07360493682624394,0.07496270320732418,-9.397707028427378,-2.7237706865257127,-0.7059051251042959,0.8034068915269574,-0.14324301891090602,-0.0422373442628374,0.5790322173026563,0.2710526856138203,-0.1608931498526069,-0.7519079247338809
9.631930039941532,0.34107032100730683,-1.829359878535697,-0.445606867065651,-0.5539835620802589,-0.36618342521270597,0.6015037277576085,0.4826317281932694,0.3944499608495305,0.4996689992591924,7.895092612796987,0.8148429219353132,-5.765290967383709,0.29970670790927467,-1.2076397823370726,-0.05941268470600124,0.6428267990875735,0.6149754658097153,0.3582068298794954,0.2833138716240883,1.6535433716834953,0.15660712948437477,-9.668396090568931,-0.06265710032140753,2.5200102903261206,0.13248234175700216,0.7094487332324627,0.699547348358603,0.06847611332251732,0.05125450442198413,3.5696848756278534,1.2207992096212248,9.055540952157223,-0.20255927676366514,2.4837502074998694,-0.05184306814705576,0.2140690150384884,0.0568365172842742,0.7186120421892859,0.6591970873145525,8.8186016142568,-1.5244636234687095,-4.017808671267478,-0.016277124036331636,-0.0686369152274617,0.018841720637263023,0.547391034064677,0.638218649880413,0.3502670958502839,0.4127383824349686,9.512568220452595,2.3934267858364735,0.13262558167792832,-0.023933511099521708,-0.0010042639822928842,0.00221536837031979,0.5586571334403778,0.4278577690111126,0.5566615952638742,0.4415515882785296,8.731336911906189,3.8274909918757793,2.3131646227540386,-0.05111204220600293,0.40480563923379936,0.37593859274290303,0.8061260419495175,-0.0005686751702224627,0.2126825850996012,0.5522015928034854,8.565939544352853,4.742535995624599,-0.614015393326752,-0.014458426293283089,0.00942317513999158,2.421500080568689,0.8547519818520134,0.09809368087516873,0.1053788303098812,0.4986702130816891,-4.566579099006426,8.67799124168674,-0.2724373528657335,-0.038953988141124676,0.04787830602765322,-0.031687111506982155,0.9695349361107167,0.00239418152020296,0.04815699071746646,-0.2401607374253226,1.4968959304407818,9.682132939739436,-0.4970933854121745,0.00658432575590006,0.07151280382068569,0.02843684634172652,0.9939627213290468,0.03106446780800595,0.07439862086917225,0.07441742175543335,-9.40288659864771,-2.7280135838661375,-0.6151256467913704,1.3352721748140044,-0.31766732711749873,0.004276561820491187,0.5762968255076335,0.2755066409932755,-0.16980475259827,-0.7504294808131321
9.588397330563053,0.5110475392929055,-2.0094044488658422,-0.5305386888376503,-0.6084510777056451,-0.40044513712139657,0.6129263773188385,0.479556420837478,0.3877879891957025,0.4939305322167342,7.674617051632795,0.7647683401005758,-6.062206124050473,0.3599467336260661,-1.0138224359399848,-0.11191393656254564,0.6458832534918967,0.6235619163035337,0.3490248842387269,0.2686763658692938,2.4459643578775334,0.16277027077199763,-9.498846689311074,-0.04198582048653457,2.4440203827971057,0.25192596066774264,0.706621071209682,0.6962820534206442,0.09488876758424468,0.08291010549478199,2.8181826922369573,1.1649063613013237,9.3239843649801,-0.22663484771530595,2.404584117882397,-0.10166452021188828,0.1857109377818163,0.02828552490417683,0.7244932636628696,0.6631899332591059,8.817826816949745,-1.526300047039518,-4.0188255615469295,-0.05478418885498154,0.039753369545637525,0.045773726422662454,0.5475978060687012,0.6380044447190901,0.3498073259623368,0.4131849537561961,9.512813926031152,2.392072330259591,0.13743264690647386,-0.07872532857173248,0.008446873231357538,0.018252555340401554,0.558935086906238,0.4274262297437777,0.5563233178296474,0.4420438358253043,8.751878349808287,3.7072580365335472,2.42846295988165,-0.10604816627440974,0.4220588125628734,0.5298678375911848,0.8007934411158083,-0.002494032182819979,0.218356012200968,0.5577134536704886,8.913995927099831,4.051381205148594,-0.6088321631260524,0.05848235329828019,0.055157095127107314,2.3470138364446154,0.8343294535191449,0.1021520499288985,0.1018615871723351,0.5320559545240533,-4.568730710251982,8.676933044754547,-0.2676865743083014,-0.09182845351090876,0.12279105636292935,0.025798714088463768,0.9694345272103048,0.001778477176051658,0.04961418747033328,-0.2402747736927994,1.511633647044639,9.679950017674381,-0.4941690788808239,-0.00842564983135649,0.14507822039862195,-0.030566405231205334,0.9937782370065917,0.03110366466395157,0.07610677355430966,0.07513412484148609,-9.403813901210588,-2.784440236287385,-0.22540262426879795,2.38434371911849,-0.6513744518235718,-0.06767701877392551,0.5628854607257043,0.2898821416447575,-0.2030770522863916,-0.7469190136110678
9.538861846710292,0.6581253143539436,-2.194074286197965,-0.5701023178629866,-0.6020657471980554,-0.34889368963919154,0.6239634843190769,0.4768035432278264,0.3797641080822233,0.4889858623869413,7.477171740510587,0.73809765279458,-6.307348817284194,0.24521386547242527,-0.8772608297658321,-0.13105330585559682,0.6489658852493138,0.629964312309042,0.3412703431948556,0.2559742132622658,3.207786275996783,0.1391995636562955,-9.26974357964324,0.03322729042986862,2.4150840335112034,0.25067916474032215,0.7017909224540603,0.6927970416085503,0.1208469045977709,0.113656438219122,2.066049566969048,1.0987707339087809,9.526800763002639,-0.24701106128823175,2.355352853981794,-0.14770394385992772,0.1583361557527493,-0.0002535611390130876,0.7286537885022072,0.6663281878996042,8.8218303270484,-1.5380282414857596,-4.005565342601905,-0.0875396580559593,0.10143067186903935,0.08459068657466527,0.5475250281446694,0.6373709466252597,0.3490640107965389,0.4148842444825221,9.51557225765177,2.3802195826566157,0.15014653378094317,-0.13118139479561722,0.013196174545335424,0.04322278986869673,0.5593398469536119,0.426636574595781,0.5553750727000831,0.4434847206505158,8.79113544019003,3.475430473639619,2.62188707132551,-0.7521497008504512,0.5108363975646454,0.7286681641897825,0.792874214390158,-0.01076523993326428,0.2202040145658289,0.5681063119993132,9.202774104872306,3.3461605484129717,-0.5963151956942938,0.11760314781317864,0.08402954422082887,2.287145615187545,0.8127565263960473,0.1066732291976271,0.09983380760273661,0.5639865794792653,-4.54770232951367,8.6882616103332,-0.2560471975794841,-0.13327696797750885,0.17501069619360732,0.101074397760663,0.9695706840118857,0.0004693788165758776,0.05269187985599692,-0.2390732820402388,1.4784387053544525,9.685964210613966,-0.4757695728083974,-0.035378657759444945,0.18654640987264198,-0.11400951089285685,0.9937064143434493,0.03024543611282074,0.07901102497322621,0.07341684833681238,-9.411130835075193,-2.765661383773334,0.13167285349288935,1.8591294248511552,-0.5766697503646387,0.1560945903624742,0.5522226159089465,0.3003865281192599,-0.2325689312167503,-0.7421117223409396
9.486036975831748,0.8292978163687503,-2.3587802958129447,-0.5853558421054824,-0.5269310847466286,-0.41213956412423514,0.6353800152125318,0.4727395843229397,0.3722450320372431,0.48398673308913,7.30183149795567,0.7166553787757836,-6.511915636888633,0.31311580979466347,-0.7253504962703149,-0.2030678047557203,0.6511094192417193,0.6355259871341866,0.3355363784741514,0.2440872437721394,3.9361137157574206,0.10703390646239226,-8.985156573139166,-0.07740158847371237,2.363316667044679,0.3478403250003363,0.696019382173505,0.6881472363862492,0.1450183525777137,0.1448450140958458,1.3136614479625208,1.0278747283988985,9.667148938775984,-0.2612778746429322,2.3093182851629246,-0.17631312726641638,0.1317217965517886,-0.02880912122999018,0.7314660057485144,0.6684137081788787,8.841388190908498,-1.5517601668331154,-3.9568567881056604,-0.08059260134868323,0.2559053164551246,0.09559529386967039,0.5468048296793694,0.6358157908792462,0.3491892282456245,0.4181024290591238,9.51974258736997,2.362567477448748,0.16338567721607042,-0.12574258693411067,0.003208136267311496,0.07350735630775414,0.559789075684058,0.4258417196496221,0.5541124116360568,0.4452577408889301,8.827853463516709,3.1844206755545588,2.857473948449574,-0.5990782957663929,0.552856203437662,0.8391232702308548,0.7833473846232325,-0.0223715524065792,0.2206318078400359,0.5806789078450315,9.428982061053562,2.644149530970168,-0.5881521586183381,0.18049417625104192,0.07014310796772316,2.232745307565613,0.7906648394626259,0.1115640512763901,0.09803732009675603,0.5939623371633805,-4.506529046318302,8.709853492464996,-0.24830044016135852,-0.13831898765206208,0.23089783458496377,0.1804355146699011,0.9699337052257199,-0.0007029774554362095,0.05634166379809167,-0.2367566898954837,1.4652454231388905,9.688725362585902,-0.45965155180539746,-0.011116711166918394,0.23885392058743476,-0.02429894651122699,0.9935016312176694,0.02961709193439178,0.08240791560699597,0.07270675400875731,-9.41718323261565,-2.6924263390569148,0.551161556377453,2.4067037477308117,-0.7827316801947164,0.17579025912155977,0.5399216832313458,0.3113816301267037,-0.2669422832063959,-0.7350291652940197
9.43278857315853,1.002210625767812,-2.5010062020860686,-0.7102039059308658,-0.5041340498546337,-0.3767228293439296,0.6465865614541714,0.467721233282887,0.3647108541875513,0.479738115351483,7.145787360175244,0.7078447208645997,-6.683729276890757,0.2710232150391844,-0.6634975407614745,-0.24927128798298442,0.6527603643496369,0.6401154066804754,0.3316371790543923,0.2327508417455537,4.638349063212059,0.03552517177284434,-8.644274841060817,0.2793496925884762,2.4387894941440202,0.5264154860849134,0.6882024394120124,0.6833243250549837,0.1679506408658224,0.1767423305500579,0.558286784875946,0.9488031645617406,9.748003623078239,-0.25663706569824946,2.336562431789083,-0.2577331605524008,0.1056356675566789,-0.05765917815551728,0.732940050649337,0.6695635944915407,8.87553457749898,-1.571163166785898,-3.8718811558752426,-0.13532518682677128,0.3501117109757976,0.12037530457966371,0.5452979155698766,0.6334201274918798,0.3501270543813785,0.4228949883287071,9.526468182864795,2.3347735952101742,0.16964295947525604,-0.1726692086734141,-0.03924515196409302,0.08586163915862391,0.5602969493428928,0.4254190922348163,0.5523192633831994,0.447246415094624,8.862330664369829,2.8234097911877716,3.1185783412541896,-1.466536460024948,0.6285691156532734,0.9908021897342901,0.7717407091670846,-0.0362896283673031,0.2198433869392341,0.5956242321349381,9.597533780180598,1.948433267712339,-0.5770214138788959,0.17297148757042227,0.08654544795006025,2.09645986513197,0.7680618513874216,0.1167739736543579,0.09688741907167207,0.6221395820440362,-4.439214551774322,8.74461107808844,-0.23807530937209156,-0.1574260643190385,0.2064668387287743,0.26418638902546643,0.9705816086127138,-0.002073691540813656,0.06073012071173704,-0.2329783107168736,1.4513573081658493,9.691893696177013,-0.43658340648970145,-0.06367930055718642,0.2092457230351286,-0.07295427923175,0.9932476043839111,0.0286655223433099,0.08635008357924216,0.07198018672012811,-9.417415332154949,-2.551031105485007,1.0203616772129191,2.5389943884329758,-0.8482537750208209,0.30395021416826196,0.5261793919649483,0.3219281723684067,-0.3051506339095145,-0.7255209093689555
9.380427329939298,1.1876727840379744,-2.614287328476775,-0.7041135818511772,-0.368796738602352,-0.4098919728224603,0.6579790978991304,0.4610736843682623,0.3572174108907665,0.4763090232899434,7.002589898073702,0.7186419935422461,-6.832493231142036,0.2968572231384352,-0.5243768369426512,-0.4107529353445141,0.6541984912863045,0.6437671729540916,0.32962696899881,0.2212108097134435,5.3392747581803475,-0.17803915540555126,-8.22802121222016,0.45824462874674465,2.5487012203238875,0.630202170320646,0.6741673687861078,0.6816873047423945,0.1909075854747697,0.210606436808706,-0.22101611664345366,0.8614094156602756,9.76956346833187,-0.30445967212189884,2.393508641535498,-0.3199550540481967,0.07962137435635439,-0.08806059618874948,0.7331875906493529,0.6695832472981117,8.922006441028888,-1.595925801568565,-3.7531500406968132,-0.13313396042230463,0.520198304918052,0.17598033003490657,0.5432769622005303,0.629953623424142,0.3514641284614748,0.4295131442479657,9.535670000057989,2.297164063079055,0.16528994468232827,-0.17937906857946304,-0.07390064364586939,0.16018222611688893,0.561252032045193,0.4252123819260556,0.5496079597246661,0.4495794450252389,8.882699978968915,2.319634863322659,3.4575325199588653,-1.265910798730868,0.6771733364303627,1.2323324794837482,0.7568793020633279,-0.05974918764439376,0.2130231838223318,0.6149673811172115,9.71018101797886,1.2824080531791537,-0.5561329701075056,0.2988032926001351,0.12823238737080783,2.03798236025845,0.7457003706210417,0.1217748934682519,0.09639884179230877,0.6479267673723152,-4.344706597679621,8.792399996627807,-0.21944657512252122,-0.23489373631748528,0.3007804368802431,0.37311966235378263,0.9715369791982215,-0.003796669341377192,0.0653378772817132,-0.2276674002676419,1.4376732942758985,9.695479613309526,-0.40070022969190405,-0.090115866426025,0.3215929913473812,-0.03268310879092781,0.9929806762471337,0.02706446736378488,0.09038417664690439,0.07132735672910356,-9.408700898187167,-2.3328807608005286,1.5069738030573558,2.4850015050198038,-0.9118735510461833,0.4209199758676598,0.5116700717042405,0.3314980536063861,-0.3453913750760074,-0.713447668859083
9.325971188640626,1.405376205933258,-2.700332159491777,-1.201678898325297,-0.4644125053581217,-0.507454544195943,0.6707481502565372,0.4515760671282285,0.3489280518684171,0.4737353577090764,6.852771092775025,0.7645778870691304,-6.977830374697616,0.28713977710434013,-0.7397241352702791,-0.5703306097030152,0.6562013417444341,0.6463278815269469,0.3292070183039407,0.2080452060325405,6.059302255884288,-0.6990267652222188,-7.6841832660759435,2.4197245491143464,3.078246691104492,1.6673298849829425,0.6469240674390238,0.6880095568647204,0.2142852185194136,0.2494272353915018,-1.045030046131197,0.7694261359946116,9.723373941677387,-0.13244566723381912,2.6293725926930165,-0.8175890985433549,0.05452718535230794,-0.1224754004145434,0.7322685310188468,0.6676895692088898,8.985257101441839,-1.6199728905961843,-3.5887344300996737,-0.6162853909903684,0.6966804474867122,0.25048106262704456,0.5414908803095555,0.6239210112026208,0.3524685020998456,0.4396318384159328,9.545890309997532,2.2546430980087178,0.15532277380911858,-0.6534392824833629,-0.16221011993644388,0.0541192173161337,0.5638853727384077,0.4238987264356499,0.5449232255886081,0.4532127914699762,8.897009846477166,1.8338982843390683,3.70378688796019,-1.2343572121695774,0.5261019180219065,1.162964871660975,0.7409176440641512,-0.07447558090812885,0.2109807307075284,0.6332310509071251,9.771360573426279,0.7057743856006249,-0.5114353604175057,-0.14276773314717683,0.18275306106595365,1.3378436655141863,0.7257764285745553,0.1245585465275939,0.0960503331641856,0.6697074568134549,-4.230977701420635,8.848669307597032,-0.1795209892472377,-0.11120890395035224,-0.16152523990655981,0.3771578502076828,0.9728212449458888,-0.006075938619588649,0.06806341808951966,-0.2212448405495443,1.4206014957798911,9.700453964216255,-0.34038282497085937,-0.25821419161988923,-0.14485419227220592,-0.09519957087290969,0.9929004905825064,0.02406635544262191,0.09259352573780247,0.07068143552709272,-9.387791881428818,-2.026350721427156,2.0000695834200743,3.052618519997053,-0.9850047504958491,0.5010502131825744,0.4963087516401629,0.3402205935158039,-0.3878193189608977,-0.6982290072990687
9.265515480662588,1.6840310538138388,-2.7484812421028213,-1.0426111458175542,-0.24513081260554934,-0.48947318491720987,0.6859539138270154,0.4377245759359785,0.3395735362746541,0.4717565444050494,6.676269838308089,0.8536697877568022,-7.136823294312007,0.181042742313697,-0.5195846177526492,-0.6503745538096347,0.6591468696481945,0.6478724455149919,0.3302102154921316,0.1916974495397631,6.729252489023368,-1.6100826247205462,-6.954652556499181,0.7966464879549284,2.489754294746051,1.0249898022550243,0.6015734411186024,0.7044829448271045,0.2367918276365698,0.2928187250723342,-1.8701837024767622,0.6795616719173585,9.606003949576817,-0.3109230943856317,2.101859337957006,-0.5753313368048405,0.0330786842326468,-0.1605210572962073,0.730434644612701,0.6630264103061518,9.069483072672922,-1.6344089157280968,-3.3629296255874412,-0.2145025794214975,1.0430019012471416,0.25246613800786233,0.540464917364135,0.6138793408407914,0.3529983664891251,0.4543588683446856,9.554810053200091,2.216715192503432,0.16315319240661003,-0.2924988299866852,-0.0506388144464259,0.25744111827548766,0.5687452295166022,0.4197546630889338,0.5380538162582126,0.4591655230166747,8.894891513875745,1.3337596519517363,3.916366024563483,-0.01177816131928433,0.5069853168657859,1.4280171876344463,0.7239884956290058,-0.08730281555586994,0.2093874671983759,0.6514412983324867,9.796057715564203,0.30191745218142013,-0.4288462613685505,0.2426497204275126,0.2525141944635123,1.497445805626087,0.71142357001801,0.123437548065346,0.09626783556235854,0.6851074219321985,-4.094139070835311,8.913954853806716,-0.11051722863874264,-0.28172377097583945,0.17042902699712287,0.6063418310392122,0.9745636725306112,-0.0090232715436044,0.06757381065643274,-0.2134900673747299,1.4061203823489439,9.705391184907329,-0.24804657871306762,-0.23855917291833284,0.2149181090158419,0.05799964830593329,0.9931085463683178,0.01923238923465415,0.09171315693522074,0.07038627124311415,-9.358561551910222,-1.6460489956368627,2.4382052885956673,1.762825962739199,-0.705462870039521,0.7009448539535815,0.482079126054893,0.3473580227276654,-0.4286111080972579,-0.6806134279343289
9.212946476735125,1.9114315054026072,-2.7761689523595505,-1.419804809482892,-0.3744670680002973,-0.460582777249368,0.6989350745328334,0.4249110518355955,0.3300399629087675,0.4711835974425785,6.5372621150084145,0.9363048725099287,-7.254151019962438,0.16778308098645933,-0.6383963218693904,-0.501913867084086,0.6624486405469584,0.6479078376038707,0.3299803397839343,0.1802504035086815,7.1080231222117405,-1.6625544158084553,-6.5536789684561345,-0.3595313864788795,1.6554578207962605,1.1037083236007035,0.5963049374547372,0.6927798433631763,0.244319752201739,0.3237041378803729,-2.3939722137518227,0.5036892791974664,9.500061013377127,-0.5078227766227854,1.369139359750462,-0.43420387894808926,0.01588757840538267,-0.1828804863217692,0.724860938107608,0.6639871482046052,9.185592144816264,-1.716723488908004,-2.985599103631194,0.09685589144745269,1.3867385234478877,0.27036216004138997,0.5302655321857667,0.6069094703183643,0.3623944691495378,0.468134178354297,9.58239977663234,2.095012800429213,0.16033349410136205,0.003179416992180892,0.024897615616767305,0.4268270893472135,0.5655703156333272,0.4235323708330952,0.5356281474472289,0.4624424684143592,8.887406433533133,0.9549843935130989,4.042029568548652,-0.3957565861965493,0.5278979735359084,1.3748923684662222,0.7073527783177859,-0.08406098476614164,0.2198823303014701,0.6665114842727399,9.801651266548369,-0.1989675023248289,-0.35281185022864237,0.13709045473256434,0.2971893600585078,1.1266159382655836,0.6928568694135107,0.1264524009999084,0.09904620643305893,0.7029573228717998,-3.8960342985424474,9.002893232960796,-0.056807293140636476,-0.2467390870645866,0.03809696064997765,0.678127886282987,0.9765705774436231,-0.01195522320508328,0.0719603404846516,-0.2024566356207624,1.4215887181800988,9.705020432916681,-0.16476074513281788,-0.30494502002895346,0.052727364367029135,-0.025122219278547554,0.9927728309963122,0.01531430589930717,0.09514992289782095,0.07151272783867885,-9.336551576272399,-1.29475955094005,2.718512433950634,2.1150228091161987,-0.7560903935859484,0.6273548456850552,0.4758709129011324,0.3476121386166238,-0.455586544274745,-0.6671983033677588
9.12803071814594,2.3156664892448893,-2.7498518696984164,-2.036489343161185,-0.2676837408718902,-1.1143690627890546,0.7191054201533221,0.4021622643245443,0.3177177472447277,0.4692636156204791,6.310210295908952,1.001514186216079,-7.443900902305523,0.37084801121326544,-1.0264495174996557,-0.6871484866524009,0.6653831929131313,0.650205291837928,0.329122570409241,0.1617918993704434,7.494755403752308,-2.109494083388347,-5.968499022095874,0.25126356262655386,3.094307034327672,1.0845650048443285,0.5734198610868118,0.6900034183906778,0.2524061627700488,0.3624583762531366,-2.8394619791919156,0.3054135819688818,9.385071042699836,-0.48895344786235434,1.3204526746395866,-0.5354808174930967,0.004510083795378327,-0.2057695656286554,0.7180042541580859,0.664912352130748,9.301333018082081,-1.807083071372349,-2.5409036992407383,0.0035467756122705696,1.390923763499255,0.3136680712568291,0.5195835294245532,0.5966120248270039,0.3713908588017278,0.4859587202438723,9.61034740906454,1.9606373534277723,0.187150922402294,-0.08476292036204111,0.021184414781645407,0.4385184344887711,0.5632535473536264,0.4251492676088657,0.531668469439406,0.4683184602908158,8.832193565069465,0.3893083770647285,4.251633742281147,-0.27625151654657754,0.6433607751782974,1.6779391835854498,0.686605538130971,-0.0956179472119573,0.2200961769820276,0.686285447941851,9.7958993333681,-0.46848169286615915,-0.22956870239430424,0.23442615628660116,0.39781346111931554,0.909959783857642,0.6823482316633344,0.1244036192390576,0.1026277829635802,0.7130162469608421,-3.666756741520536,9.098839079552452,0.02648364891781131,-0.3321116180207942,0.0829823800803502,0.8259058540250849,0.9790484040667806,-0.01538471092420387,0.07225051224017007,-0.189756150480298,1.42243660648208,9.70627001948652,-0.047081728207076,-0.37182208690968793,0.11682410151727057,0.05135184366040303,0.9928827810734686,0.00926947968241222,0.09430820771290237,0.07213751972595156,-9.274809751124709,-0.864433774562573,3.076992349348102,2.4465867631300457,-0.7736044365797647,0.6031380222712867,0.4603667897361809,0.3538058808713041,-0.4939710703433263,-0.6472066124760717
8.994992051376542,2.858598911241457,-2.6767894982798155,-1.89208389683375,-0.40046411817349553,-1.092325043219676,0.7433979210244477,0.3736074439970888,0.3050765272366684,0.4633630556439579,6.009420815310862,1.0315711433404817,-7.684755410641801,0.006302576255759085,-1.1288892495952676,-0.13504851167994686,0.6705682333168738,0.6531325091971343,0.3208159798920872,0.1443373719520414,8.132542754620463,-2.095468947489443,-5.07004556675567,-0.8421480669664352,3.8195923789117545,0.14597222468920565,0.5620369468018607,0.6624783214018302,0.278140854891135,0.4097250406585916,-3.193382037670522,0.0913995209061217,9.275320112672395,-0.5779745610855959,1.0310797016208426,-0.4133666739293551,0.006718080120525062,0.2228435787168381,-0.7103483026859284,-0.6676083400433125,9.377142128485227,-1.9237721380798078,-2.145756327407871,0.1283939491326621,1.1831169467529907,0.38342158755645084,0.5075311874936295,0.5898742164737943,0.3799464755293268,0.5001011679586206,9.642246460645683,1.8001781633263056,0.1543291061538061,0.11460446906926015,-0.1402406236493945,0.5391907051241596,0.5591717253492046,0.431311320019091,0.5282802485821226,0.4713995181917283,8.759256209781498,-0.021332735958517042,4.416947859768951,0.5673060176209016,0.6066784267663301,1.624451415755984,0.6660845280833683,-0.09015446463760643,0.2351217164001736,0.7020835793770566,9.772502762229045,-0.8463659947247837,-0.10556186506505878,0.2722751705860876,0.3662484092747685,1.177828700343816,0.6672450169655315,0.1256278228021054,0.1079940522131451,0.7261811221446443,-3.4246695211271057,9.191911929535303,0.11412837084955055,-0.34733532417239366,0.1267498314269384,0.7918173636053973,0.9811623551427101,-0.0196529019880414,0.07631810947844113,-0.1763795409334533,1.4279229891932688,9.705222335937203,0.07494335008868479,-0.3699023695208594,0.146170618886237,-0.017011121454018,0.9925853112427498,0.003296741777753852,0.09712761273002704,0.07300519326835622,-9.234254188231176,-0.45558866271317544,3.279665565571356,1.6725317764925633,-0.31628958279716823,0.661107532637782,0.451307737875708,0.3576533050072876,-0.522592867621434,-0.6287305733476637
8.871695831061672,3.253708173318676,-2.636206598360065,-0.8123331300122737,-0.25143793628818295,-0.7389011948344368,0.7603040890957203,0.3545783665884687,0.2962478576645186,0.4565622420666906,5.762034748158547,1.056805240570577,-7.868721039515618,0.01690029646485547,-0.735508838092376,-0.03684960708411001,0.675806507699909,0.6546239418172007,0.311685729159323,0.1326840803886578,8.683321571623566,-2.0676189722920815,-4.0693907420877435,-0.2309276007368366,3.5393061683049245,-0.1714651205119565,0.5475935863041071,0.6330403684307377,0.3078960018729527,0.4523286506582716,-3.5192686796897497,-0.1236468160692414,9.156223750751346,-0.5434705159336994,1.062550411331249,-0.3729014888526,0.01646547687086717,0.2396771355561608,-0.7024293760515358,-0.6699826344188772,9.431508440706164,-2.042594984515824,-1.7637264164994066,0.14402465234998632,1.1799567633070187,0.330377416749916,0.4959118951497652,0.582821949869632,0.3872504542644857,0.5142247102882921,9.671762101499649,1.637668203145371,0.10992673482082722,0.16058159974073247,-0.1231512129523353,0.4872496165410475,0.5556098337759227,0.4375365510897228,0.5241831267443872,0.4744381189454316,8.644712233379817,-0.45041800143489186,4.615207667413885,1.058511085114013,0.6427067095720048,1.9552559195769255,0.6432037518872329,-0.08458027490980746,0.2517912861419893,0.7181477973769265,9.73512424010003,-1.207104583833266,0.04254294110855486,0.3195672308605161,0.45854037915098966,1.1789300023869749,0.6523398045631952,0.1255125938852648,0.1137482726671494,0.7387561834759048,-3.1496730710822316,9.287927423535018,0.2187377405297109,-0.4041214726291834,0.1288938909957743,1.0014481057283353,0.9834078811513993,-0.02436207371469874,0.0794023156549952,-0.1612783337037535,1.4302326893732324,9.702813097317279,0.21706857849690003,-0.4496809020748951,0.13646871548094752,0.03498960385047571,0.9923755287168949,-0.003810538902127749,0.09861583692620833,0.07383228632842255,-9.207683942631347,-0.0843091197682416,3.383430535814332,1.4037580866397519,-0.2682236003464077,0.6200682784101632,0.4461867163500567,0.3604037958135704,-0.5446299137191943,-0.611886243674547
8.80211685457725,3.4348261926278343,-2.6389469344538408,-0.4694584765578673,-0.1930029459701429,-0.134720750206687,0.7681775096799632,0.3467509291753689,0.2914762484790316,0.4524474591712259,5.630453935097286,1.07031335098169,-7.961631747733003,-0.29281943328281673,-0.27361996541355904,0.0499120539678206,0.6794710793535903,0.6549062674434827,0.3047385339880019,0.1286516967947019,9.09856410389405,-1.9650971902582457,-3.0970101467766242,-0.33062552902470754,3.0675777547021204,0.17224596034394277,0.534778442323602,0.602448246859477,0.3374684107522426,0.4870145780428345,-3.847623365544858,-0.3431163793395135,9.017487393062739,-0.5256047072350123,1.1819368189000377,-0.5425405996987542,0.02666894857565488,0.2567185461200924,-0.6941110980670727,-0.6720075437076413,9.471332992029527,-2.159323312955847,-1.3665269016634245,0.014891652491432317,1.3521342799010496,0.363493276053789,0.4837541928637605,0.5752503002416154,0.3948787342800623,0.5283367847992785,9.698447995000246,1.474572061300552,0.056704154106566804,0.054540880054225166,-0.14481787049188166,0.5107813848426576,0.5518142424084109,0.4443588934823103,0.5202441540172107,0.4768566198233228,8.48271511636798,-0.920500565385574,4.840603160811192,-1.0004013095589033,0.9917807802004976,1.782790697307361,0.6174006022608239,-0.08017575119157894,0.2682605296577623,0.7351357925421498,9.674974406491197,-1.6077375327860657,0.20950921957941535,0.22183402284332468,0.517405154980638,1.1726146737955365,0.6354034896289759,0.1249673523212351,0.1196912012530991,0.7525420802611176,-2.829296629795084,9.38707344337992,0.3348135160908969,-0.40795120209408375,0.00956513451532208,1.0306526073476772,0.9857450630976466,-0.02930888675908168,0.08219265382642131,-0.1438472363048036,1.4296755097486302,9.698083912632642,0.3748157210144088,-0.5244845973753305,-0.007621469224546977,-0.06068915312707364,0.9921961171261939,-0.01179185256312733,0.09919929523685907,0.07461445702639609,-9.200070907658763,0.23251268811207343,3.39732543953639,0.695011523843739,0.24722551139505036,0.6886335105251608,0.4451630677967974,0.3624980218033771,-0.5600724238105995,-0.5972804260523716
8.789855848086269,3.4824948099398187,-2.6176302630098625,-0.2815263050118446,0.06097028113767182,-0.0843230901632355,0.7710522610689852,0.3422850370338638,0.2880175609106719,0.453172427151299,5.60094643941269,1.127771479360257,-7.97452444400552,-0.09536443354319135,-0.028572381736092077,0.3869368552224,0.6828464526581298,0.6524958089519872,0.3019780468592251,0.1295345537198008,9.37174839140781,-1.915568256374343,-2.1744940309241243,-0.5445631336867667,3.420462564122389,-1.1117270532908796,0.520746190550092,0.5734260983660535,0.3622508774177784,0.5184401764430513,-4.192798452387099,-0.5584818849323144,8.851268621767947,-0.5994911088106324,1.0685831727918562,-0.14844275167672985,0.03799903216196934,0.2743941521616774,-0.6856173438789994,-0.6731959451649524,9.499241273044106,-2.261663576271847,-0.9412531582329544,0.362225448137728,1.1478089698057614,0.2558670134013407,0.4710332838167003,0.5665844459166127,0.4035516851417817,0.5424534529353178,9.720665404875009,1.3207719454574762,-0.012935601887758805,0.5147357784515902,-0.2700561210671709,0.4442779903971736,0.5480314981801269,0.4518861071754013,0.5167010360189309,0.4779962996941201,8.26068973390838,-1.4964909920689065,5.075168397157684,2.4491982126301526,0.5203797867290292,2.0093711891348756,0.5901783621715034,-0.08720469792992329,0.2747905322442142,0.754039126884311,9.593460640581926,-2.010841448439154,0.39552603644143586,0.4545517018738037,0.4769648412624977,1.5946680127980912,0.6176650461592996,0.1243387359274097,0.1265281007856846,0.7661725714305959,-2.4834508124644463,9.47881348397957,0.4653633295338886,-0.4561313795823517,0.2409424878252443,1.2450739888807845,0.9878476752922963,-0.03482884601804949,0.08536918436765084,-0.1251240355209938,1.4072605162054033,9.692995508473532,0.5496596520138368,-0.5044683369977927,0.1711319063299663,-0.021512508594460092,0.99203209275406,-0.02077494772712192,0.09954189959857934,0.07437834844389658,-9.23277934021915,0.5117195324290381,3.2757140619210494,0.5086025596614988,0.3377640560629114,0.6966331015653451,0.453554237187857,0.3623625807102355,-0.5660127398027333,-0.5853302421803975
8.801261838947946,3.513272646893438,-2.5374980562915077,-0.27611842391465846,0.2338504758869527,0.16087704306933026,0.77209651574176,0.3372298249829111,0.2879368008693328,0.4552311657021777,5.656690745330393,0.9713425714627739,-7.955772048528676,0.014816152411559015,0.2915253723545994,0.8776719354011924,0.6802968552456369,0.6564958682348486,0.2944310138905687,0.1397130695133459,9.675495830767941,-1.2612973921317499,-1.007474045952965,-0.4439832641688164,3.72989868051238,-1.780731329162626,0.5198588731674546,0.5216581456097811,0.4068178254794109,0.5404801457780224,-4.479190234931811,-0.7539536116954908,8.695010446532885,-0.5696686570154016,1.0115383781572693,-0.226882451186656,0.05083327234974504,0.2863135421796282,-0.6774618477810905,-0.6756374610601469,9.50532444284729,-2.357440901961918,-0.5735651508797946,0.2742968975787837,1.1143051889376803,0.28685492835774984,0.4576404622377705,0.561722313502939,0.4128038687442623,0.5519295387868598,9.73854348595343,1.1723172505508863,-0.14867040011118998,0.4824082882905417,-0.3726224731587652,0.4557723466060912,0.5429468715969439,0.4638018177593086,0.5147462218035622,0.4744817126141012,8.092483159979391,-1.1951800927419158,5.415544506463354,4.446771236311876,0.6712063278052012,1.7907947546875291,0.5681344314555511,-0.03661537666524959,0.3411858048027547,0.747980500138497,9.443965158031117,-2.5901939602851596,0.5789587374854503,0.3949042371823521,0.4964147864700122,1.7739030545871004,0.59178425524237,0.1270252792024725,0.1333626006517629,0.7847741015337891,-2.045997481490199,9.576203624459385,0.5844234335406443,-0.4132011233404598,0.17266975441110777,1.448714950202938,0.989830414761875,-0.0394791434074781,0.09127906298687063,-0.1017117491167326,1.4181654015549139,9.68051777389194,0.7169603987714344,-0.5133450104666336,0.04440140483442074,0.05737190769075759,0.9915193551576947,-0.0290911571394553,0.1014269156568539,0.07586602470338019,-9.258399980932422,0.7575639724448793,3.1535388903925727,0.6735780708614522,0.5260804776466201,0.4729039566212117,0.4574103068590902,0.3663307443657857,-0.5739235303924375,-0.5720047011811732
8.868320375310487,3.4162842369647057,-2.4333624814785484,0.019524027019136206,0.3775881218686106,0.5431937499372453,0.768539634953065,0.3350784302985363,0.288881379288361,0.4621870008506652,5.797330073090108,0.9008359223707151,-7.862298347259864,-0.13898873836274428,0.6497051527072037,0.1949399161395785,0.6776461923959922,0.6568063856098929,0.2944497189284691,0.1506664288294772,9.754069985134624,-1.0458653386640906,0.04121640084114984,0.22466526672635953,2.911618883128373,0.12191454455142431,0.5028899887436206,0.4875626950117142,0.4402497260768149,0.5617512406249271,-4.788308018857601,-0.9441229921100456,8.509793010143277,-0.42870897517330375,1.190312782203883,-0.3887067337261506,0.06208133817895815,0.3019270384297086,-0.6693354361810075,-0.6760000331267414,9.501142796537561,-2.4361217725408175,-0.17424982345113169,0.08763869204163036,1.3033993690408778,0.20384640355699632,0.4453751950274616,0.5533338800182233,0.4212820274643344,0.5639007059880036,9.75089574277828,1.0378062966402877,-0.2823511633014623,0.3044537453788132,-0.3552445089497408,0.36755040120835364,0.5399102986304155,0.4736270138095845,0.5112638009823649,0.4719996260885131,7.822927104765572,-1.4620582700017244,5.735977574871987,-1.621017495371077,1.3126538796327167,1.7714971413010545,0.5402290431896745,-0.0284969854050319,0.3656463365628315,0.7573924077222948,9.304504237870715,-3.0091824484984997,0.7779554630054082,0.21710559190687342,0.5976213234034451,1.0936496545262455,0.5719637798973324,0.1255735561119569,0.1395990688313943,0.7984991023616501,-1.6193184622537917,9.64909599054479,0.7130741142833739,-0.4217148966235874,-0.048163536242529476,1.2329366204398977,0.9914966560521458,-0.0441124011348259,0.09345751970153625,-0.07908330490546055,1.4161909548703422,9.666595302001744,0.8894047883101261,-0.576489314307753,-0.16375710165512616,-0.05003630842741025,0.9913743209464143,-0.03804922456634473,0.09929895314032919,0.07660894323230473,-9.322472961913697,0.9591913888964783,2.8997963242640865,0.12792232439566265,0.9744663741488758,0.575578480637605,0.468446013428243,0.370736397079951,-0.5739741466772071,-0.5600594033935465
