// Start Time: Unknown
// Update Rate: 100.0Hz
// Filter Profile: human (46.1)
// Firmware Version: 4.6.0
PacketCounter	Acc_X	Acc_Y	Acc_Z	Gyr_X	Gyr_Y	Gyr_Z	Mat[1][1]	Mat[2][1]	Mat[3][1]	Mat[1][2]	Mat[2][2]	Mat[3][2]	Mat[1][3]	Mat[2][3]	Mat[3][3]
18457	9.802670	-0.280773	-0.836003	-0.019351	-0.061004	-0.047037	-0.082754	0.033797	0.995997	0.061210	0.997710	-0.028770	-0.994688	0.058584	-0.084634
18458	9.838057	-0.244741	-0.815319	-0.029974	-0.062055	-0.044244	-0.080595	0.029929	0.996297	0.061280	0.997807	-0.025017	-0.994861	0.059037	-0.082253
18459	9.835112	-0.264972	-0.854894	-0.029278	-0.050736	-0.049183	-0.081890	0.031615	0.996140	0.061398	0.997758	-0.026619	-0.994748	0.058981	-0.083648
18460	9.831153	-0.227855	-0.848359	-0.034686	-0.048833	-0.042306	-0.082402	0.031221	0.996110	0.061708	0.997751	-0.026168	-0.994687	0.059311	-0.084143
18461	9.803958	-0.237017	-0.823303	-0.035349	-0.043018	-0.042220	-0.082817	0.030782	0.996089	0.062067	0.997742	-0.025673	-0.994630	0.059698	-0.084540
18462	9.819937	-0.279848	-0.794104	-0.037521	-0.039524	-0.035159	-0.083232	0.030455	0.996065	0.062411	0.997730	-0.025291	-0.994574	0.060061	-0.084943
18463	9.800868	-0.254380	-0.865070	-0.037836	-0.033150	-0.031256	-0.083630	0.030207	0.996039	0.062714	0.997719	-0.024992	-0.994521	0.060375	-0.085334
18464	9.831685	-0.278737	-0.832832	-0.036112	-0.030472	-0.028290	-0.083951	0.029943	0.996020	0.063049	0.997705	-0.024679	-0.994473	0.060726	-0.085646
18465	9.809424	-0.230881	-0.814550	-0.033344	-0.022719	-0.018066	-0.084205	0.029793	0.996003	0.063349	0.997691	-0.024488	-0.994433	0.061034	-0.085898
18466	9.779829	-0.267550	-0.821101	-0.038615	-0.020621	-0.017308	-0.084422	0.029633	0.995989	0.063718	0.997672	-0.024282	-0.994391	0.061413	-0.086113
18467	9.877067	-0.281006	-0.801936	-0.038989	-0.012602	-0.004373	-0.084565	0.029615	0.995978	0.064085	0.997650	-0.024224	-0.994355	0.061779	-0.086264
18468	9.838080	-0.288716	-0.741379	-0.034965	-0.004617	0.002138	-0.084609	0.029639	0.995973	0.064434	0.997628	-0.024215	-0.994329	0.062126	-0.086318
18469	9.740698	-0.274294	-0.762546	-0.037052	0.000728	0.012101	-0.084551	0.029743	0.995975	0.064839	0.997600	-0.024288	-0.994307	0.062525	-0.086276
18470	9.713833	-0.289171	-0.732957	-0.036430	-0.000024	0.016834	-0.084540	0.029911	0.995971	0.065216	0.997572	-0.024424	-0.994284	0.062888	-0.086285
18471	9.695354	-0.277856	-0.723755	-0.037162	-0.002887	0.022401	-0.084519	0.030146	0.995966	0.065607	0.997542	-0.024627	-0.994260	0.063261	-0.086289
18472	9.647340	-0.305733	-0.719567	-0.034570	-0.012601	0.027471	-0.084626	0.030428	0.995948	0.065974	0.997511	-0.024870	-0.994226	0.063602	-0.086423
18473	9.664561	-0.264188	-0.684659	-0.032068	-0.013869	0.033217	-0.084643	0.030749	0.995937	0.066364	0.997478	-0.025157	-0.994199	0.063965	-0.086470
18474	9.643282	-0.279160	-0.710984	-0.038002	-0.019678	0.034693	-0.084816	0.031108	0.995911	0.066771	0.997443	-0.025470	-0.994157	0.064338	-0.086676
18475	9.606244	-0.256245	-0.694324	-0.040801	-0.025757	0.033462	-0.085004	0.031511	0.995882	0.067168	0.997407	-0.025826	-0.994114	0.064696	-0.086900
18476	9.627018	-0.247342	-0.673050	-0.046381	-0.041319	0.035171	-0.085391	0.031888	0.995837	0.067659	0.997366	-0.026136	-0.994048	0.065145	-0.087324
18477	9.732414	-0.238870	-0.676881	-0.056552	-0.046863	0.036927	-0.085788	0.032360	0.995788	0.068180	0.997320	-0.026536	-0.993978	0.065617	-0.087764
18478	9.744693	-0.256972	-0.636825	-0.065027	-0.046338	0.037495	-0.086222	0.032764	0.995737	0.068859	0.997265	-0.026852	-0.993893	0.066250	-0.088243
18479	9.776675	-0.196775	-0.602857	-0.071126	-0.045548	0.036756	-0.086559	0.033224	0.995693	0.069521	0.997209	-0.027231	-0.993818	0.066865	-0.088627
18480	9.758684	-0.244268	-0.644215	-0.082265	-0.052634	0.043137	-0.087052	0.033690	0.995634	0.070376	0.997139	-0.027587	-0.993715	0.067667	-0.089173
18481	9.797085	-0.192036	-0.588263	-0.094135	-0.047098	0.041324	-0.087349	0.034203	0.995590	0.071247	0.997066	-0.028003	-0.993627	0.068487	-0.089529
18482	9.778405	-0.182447	-0.583441	-0.103703	-0.046563	0.039469	-0.087783	0.034629	0.995538	0.072312	0.996980	-0.028303	-0.993512	0.069505	-0.090022
18483	9.799274	-0.173564	-0.563613	-0.124849	-0.046839	0.031882	-0.087969	0.034996	0.995508	0.073510	0.996886	-0.028549	-0.993407	0.070668	-0.090268
18484	9.808821	-0.215670	-0.557999	-0.137019	-0.045227	0.030401	-0.088396	0.035332	0.995459	0.074898	0.996777	-0.028728	-0.993266	0.072018	-0.090757
18485	9.836152	-0.213558	-0.515668	-0.152434	-0.041771	0.024575	-0.088546	0.035490	0.995440	0.076367	0.996665	-0.028740	-0.993140	0.073474	-0.090961
18486	9.866998	-0.243176	-0.485079	-0.164346	-0.038034	0.019848	-0.088908	0.035716	0.995399	0.078017	0.996536	-0.028788	-0.992980	0.075098	-0.091387
18487	9.911332	-0.186862	-0.481683	-0.174040	-0.029262	0.024820	-0.088810	0.035915	0.995401	0.079657	0.996405	-0.028845	-0.992858	0.076729	-0.091351
18488	9.847887	-0.176691	-0.435168	-0.185630	-0.016532	0.024641	-0.088954	0.036174	0.995379	0.081522	0.996252	-0.028920	-0.992694	0.078573	-0.091570
18489	9.848744	-0.189319	-0.360171	-0.202247	-0.006677	0.036409	-0.088540	0.036497	0.995404	0.083371	0.996093	-0.029107	-0.992577	0.080411	-0.091237
18490	9.870327	-0.237599	-0.382940	-0.211239	0.001324	0.046086	-0.088488	0.036955	0.995391	0.085508	0.995904	-0.029372	-0.992400	0.082515	-0.091286
18491	9.747085	-0.250332	-0.296830	-0.217261	0.010656	0.046028	-0.087703	0.037233	0.995451	0.087623	0.995716	-0.029523	-0.992285	0.084635	-0.090590
18492	9.543808	-0.249276	-0.316148	-0.221885	0.018663	0.049290	-0.087474	0.037708	0.995453	0.089867	0.995507	-0.029813	-0.992105	0.086851	-0.090470
18493	9.389491	-0.233992	-0.263998	-0.226317	0.006369	0.055088	-0.086713	0.038114	0.995504	0.091946	0.995309	-0.030098	-0.991981	0.088923	-0.089811
18494	9.561220	-0.159494	-0.231844	-0.233503	-0.015411	0.063661	-0.086807	0.038761	0.995471	0.094317	0.995074	-0.030521	-0.991750	0.091241	-0.090035
18495	9.635927	-0.125230	-0.267904	-0.243423	-0.020784	0.065173	-0.086123	0.039300	0.995509	0.096493	0.994853	-0.030926	-0.991601	0.093396	-0.089472
18496	9.713752	-0.067564	-0.269223	-0.258294	-0.020355	0.073263	-0.086253	0.040048	0.995468	0.099117	0.994580	-0.031424	-0.991331	0.095957	-0.089755
18497	9.917977	0.022594	-0.320141	-0.273905	0.002749	0.083206	-0.085261	0.040633	0.995530	0.101639	0.994310	-0.031879	-0.991161	0.098467	-0.088906
18498	10.042035	0.068086	-0.280112	-0.295434	0.032008	0.091229	-0.084850	0.041508	0.995529	0.104645	0.993978	-0.032525	-0.990883	0.101417	-0.088682
18499	9.947178	0.167294	-0.287453	-0.327912	0.071418	0.101014	-0.083009	0.042227	0.995654	0.107417	0.993660	-0.033187	-0.990743	0.104195	-0.087019
18500	9.849513	0.243005	-0.326015	-0.357377	0.098597	0.101374	-0.081922	0.043131	0.995705	0.111040	0.993238	-0.033888	-0.990434	0.107787	-0.086157
18501	9.782938	0.289724	-0.327901	-0.394081	0.119692	0.096739	-0.079590	0.043515	0.995877	0.114579	0.992824	-0.034224	-0.990221	0.111383	-0.084005
18502	9.868181	0.336739	-0.289472	-0.429788	0.140747	0.084512	-0.078098	0.044195	0.995966	0.118900	0.992299	-0.034709	-0.989830	0.115710	-0.082751
18503	9.922305	0.482242	-0.308434	-0.475748	0.170847	0.084778	-0.075271	0.044274	0.996180	0.123095	0.991785	-0.034778	-0.989536	0.120007	-0.080103
18504	10.152347	0.673325	-0.298476	-0.527367	0.215752	0.083917	-0.073031	0.044843	0.996321	0.128373	0.991101	-0.035198	-0.989033	0.125330	-0.078138
18505	10.225853	0.752789	-0.364004	-0.609833	0.265149	0.082579	-0.069192	0.044546	0.996608	0.133839	0.990386	-0.034976	-0.988585	0.130965	-0.074488
18506	10.015648	0.742771	-0.409942	-0.685876	0.305981	0.064720	-0.066078	0.044778	0.996809	0.140659	0.989435	-0.035123	-0.987851	0.137889	-0.071679
18507	9.862898	0.705825	-0.373493	-0.758457	0.315048	0.032950	-0.061778	0.043785	0.997129	0.147227	0.988508	-0.034285	-0.987172	0.144686	-0.067515
18508	9.867961	0.554615	-0.376814	-0.822340	0.320819	-0.011635	-0.058630	0.043197	0.997345	0.155331	0.987290	-0.033630	-0.986121	0.152947	-0.064595
18509	9.711219	0.488151	-0.303173	-0.869243	0.317212	-0.058400	-0.054727	0.040989	0.997660	0.163088	0.986106	-0.031568	-0.985093	0.160978	-0.060652
18510	9.857686	0.383352	-0.277016	-0.909901	0.305836	-0.096655	-0.051878	0.039535	0.997871	0.171990	0.984640	-0.030069	-0.983732	0.170064	-0.057881
18511	10.046728	0.248239	-0.251443	-0.934091	0.314697	-0.132419	-0.047943	0.036530	0.998182	0.180342	0.983225	-0.027321	-0.982435	0.178704	-0.053727
18512	9.838964	0.214802	-0.241193	-0.946564	0.334769	-0.164140	-0.044960	0.034310	0.998399	0.189553	0.981547	-0.025194	-0.980840	0.188117	-0.050634
18513	9.792984	0.228776	-0.168551	-0.955434	0.338050	-0.187087	-0.041096	0.030599	0.998687	0.198163	0.979925	-0.021870	-0.979307	0.197004	-0.046334
18514	9.891542	0.180758	-0.165169	-0.956864	0.339555	-0.211958	-0.038203	0.027845	0.998882	0.207437	0.978057	-0.019331	-0.977502	0.206466	-0.043141
18515	9.756225	0.226544	-0.167418	-0.963546	0.339079	-0.226212	-0.034529	0.023729	0.999122	0.215915	0.976286	-0.015724	-0.975801	0.215182	-0.038834
18516	9.443122	0.188795	-0.168651	-0.956578	0.326121	-0.237949	-0.031874	0.020697	0.999278	0.225156	0.974236	-0.012997	-0.973801	0.224579	-0.035713
18517	9.534488	0.134308	-0.117585	-0.943074	0.295929	-0.239755	-0.028648	0.016645	0.999451	0.233428	0.972328	-0.009502	-0.971952	0.233028	-0.031741
18518	9.482665	0.090571	-0.055221	-0.921343	0.275103	-0.233453	-0.026533	0.013732	0.999554	0.242303	0.970176	-0.006897	-0.969838	0.242012	-0.029069
18519	9.429862	0.027058	-0.034883	-0.891533	0.245079	-0.224697	-0.023944	0.010019	0.999663	0.249978	0.968244	-0.003716	-0.967955	0.249805	-0.025688
18520	9.536047	-0.012009	0.012309	-0.856418	0.216746	-0.212569	-0.022391	0.007421	0.999722	0.258202	0.966090	-0.001389	-0.965831	0.258099	-0.023547
18521	9.454103	-0.043618	-0.005364	-0.820164	0.194163	-0.204689	-0.020415	0.003876	0.999784	0.265302	0.964164	0.001679	-0.963949	0.265279	-0.020712
18522	9.515617	0.002784	-0.016885	-0.775924	0.172247	-0.189786	-0.019269	0.001593	0.999813	0.272729	0.962084	0.003723	-0.961898	0.272749	-0.018973
18523	9.741208	-0.026445	0.000646	-0.744921	0.163081	-0.169467	-0.017556	-0.001371	0.999845	0.279139	0.960231	0.006218	-0.960090	0.279205	-0.016475
18524	9.618324	-0.068056	0.071810	-0.712200	0.153069	-0.144032	-0.016498	-0.003177	0.999859	0.285938	0.958217	0.007763	-0.958106	0.286026	-0.014900
18525	9.502435	-0.042177	0.034918	-0.674474	0.128533	-0.135933	-0.014712	-0.005411	0.999877	0.291506	0.956522	0.009466	-0.956456	0.291610	-0.012495
18526	9.497781	0.014603	0.103640	-0.643009	0.099434	-0.132010	-0.014155	-0.006954	0.999876	0.297622	0.954622	0.010853	-0.954579	0.297738	-0.011443
18527	9.713235	0.022301	0.112687	-0.616343	0.081850	-0.131873	-0.013145	-0.009213	0.999871	0.302829	0.952959	0.012762	-0.952954	0.302958	-0.009736
18528	9.665641	0.008188	0.115607	-0.585919	0.067672	-0.139309	-0.012931	-0.010734	0.999859	0.308379	0.951157	0.014200	-0.951176	0.308519	-0.008989
18529	9.711573	0.135440	0.153476	-0.560591	0.061111	-0.150607	-0.011908	-0.012893	0.999846	0.313045	0.949604	0.015973	-0.949664	0.313187	-0.007272
18530	9.885069	0.310167	0.159637	-0.553659	0.067197	-0.156816	-0.011771	-0.014579	0.999824	0.318267	0.947838	0.017568	-0.947928	0.318418	-0.006517
18531	9.993187	0.411446	0.226923	-0.567492	0.084172	-0.163879	-0.010859	-0.016765	0.999800	0.322608	0.946335	0.019373	-0.946470	0.322754	-0.004868
18532	10.039542	0.453591	0.244479	-0.589631	0.113382	-0.170818	-0.010350	-0.018733	0.999771	0.328151	0.944390	0.021092	-0.944569	0.328294	-0.003627
18533	9.936743	0.500906	0.218089	-0.619425	0.135471	-0.162658	-0.008954	-0.021102	0.999737	0.333139	0.942600	0.022879	-0.942835	0.333256	-0.001410
18534	9.874691	0.456196	0.181187	-0.659654	0.148696	-0.153211	-0.008077	-0.023026	0.999702	0.339322	0.940354	0.024401	-0.940635	0.339418	0.000218
18535	9.946268	0.432199	0.093334	-0.703377	0.155477	-0.138739	-0.006407	-0.025119	0.999664	0.344874	0.938295	0.025787	-0.938627	0.344924	0.002651
18536	10.012251	0.291226	-0.013339	-0.744991	0.173873	-0.138246	-0.005269	-0.026998	0.999622	0.351831	0.935671	0.027125	-0.936049	0.351841	0.004569
18537	10.080086	0.119019	0.009166	-0.774976	0.185734	-0.141105	-0.003315	-0.029408	0.999562	0.358455	0.933108	0.028642	-0.933541	0.358393	0.007448
18538	10.269471	-0.094059	0.061466	-0.802322	0.225747	-0.155404	-0.001784	-0.031649	0.999497	0.365909	0.930163	0.030106	-0.930649	0.365779	0.009921
18539	10.163588	-0.341513	0.107235	-0.809054	0.275779	-0.168562	0.000716	-0.034564	0.999402	0.372759	0.927383	0.031806	-0.927928	0.372513	0.013549
18540	10.202363	-0.592416	0.143006	-0.797243	0.331184	-0.184915	0.003076	-0.037495	0.999292	0.380126	0.924327	0.033512	-0.924929	0.379754	0.017097
18541	10.042325	-0.766165	0.198343	-0.769484	0.395771	-0.197685	0.006490	-0.040879	0.999143	0.386282	0.921709	0.035202	-0.922358	0.385723	0.021773
18542	9.688467	-0.841322	0.163830	-0.732425	0.455724	-0.198192	0.009901	-0.044446	0.998963	0.393019	0.918786	0.036984	-0.919477	0.392245	0.026566
18543	9.309170	-0.882936	0.163598	-0.696878	0.495461	-0.196110	0.014392	-0.048163	0.998736	0.398926	0.916177	0.038433	-0.916870	0.397869	0.032399
18544	9.080986	-0.936716	0.272964	-0.657320	0.514707	-0.183200	0.018356	-0.051868	0.998485	0.404948	0.913464	0.040007	-0.914156	0.403600	0.037771
18545	9.027653	-1.045059	0.357207	-0.636892	0.502008	-0.158162	0.022931	-0.055361	0.998203	0.410551	0.910911	0.041088	-0.911549	0.408871	0.043617
18546	9.084471	-1.099867	0.486620	-0.609794	0.461916	-0.131569	0.026581	-0.058424	0.997938	0.416108	0.908340	0.042095	-0.908927	0.414131	0.048456
18547	9.085288	-1.343309	0.539026	-0.589513	0.417016	-0.119319	0.030319	-0.060897	0.997683	0.420704	0.906200	0.042528	-0.906691	0.418440	0.053095
18548	8.993299	-1.578584	0.518573	-0.549354	0.360000	-0.120612	0.033056	-0.063468	0.997436	0.425689	0.903828	0.043404	-0.904266	0.423163	0.056895
18549	8.806889	-1.794089	0.464907	-0.488909	0.287532	-0.130031	0.035629	-0.065323	0.997228	0.429471	0.902021	0.043742	-0.902378	0.426722	0.060192
18550	8.562377	-1.927897	0.452363	-0.418601	0.205520	-0.138104	0.036872	-0.067411	0.997044	0.433264	0.900151	0.044837	-0.900512	0.430330	0.062397
18551	8.627781	-2.070928	0.411033	-0.343791	0.115063	-0.142302	0.038105	-0.068253	0.996940	0.435880	0.898885	0.044879	-0.899198	0.432836	0.064002
18552	8.793511	-2.182953	0.362107	-0.263865	0.010949	-0.151603	0.037526	-0.069621	0.996867	0.438276	0.897653	0.046193	-0.898057	0.435170	0.064199
18553	8.894859	-2.255001	0.321995	-0.174938	-0.080282	-0.169169	0.036899	-0.069748	0.996882	0.439591	0.896994	0.046488	-0.897440	0.436505	0.063759
18554	9.043792	-2.299961	0.186097	-0.091887	-0.172587	-0.189301	0.034504	-0.070647	0.996904	0.440449	0.896478	0.048286	-0.897114	0.437420	0.062048
18555	9.152101	-2.384884	0.050338	-0.001170	-0.258272	-0.214092	0.031866	-0.070335	0.997014	0.439996	0.896651	0.049192	-0.897434	0.437115	0.059520
18556	9.128759	-2.507490	-0.090864	0.099641	-0.344233	-0.239693	0.027707	-0.070936	0.997096	0.439139	0.896936	0.051608	-0.897992	0.436434	0.056002
18557	9.343842	-2.635700	-0.177388	0.217168	-0.428503	-0.276916	0.023416	-0.069969	0.997274	0.436451	0.898179	0.052768	-0.899423	0.434025	0.051570
18558	9.643802	-2.736830	-0.240192	0.351492	-0.491755	-0.320363	0.017578	-0.070673	0.997345	0.433315	0.899495	0.056102	-0.901071	0.431178	0.046435
18559	9.724073	-2.654839	-0.386915	0.497256	-0.526356	-0.360793	0.011964	-0.070037	0.997473	0.428333	0.901746	0.058178	-0.903542	0.426555	0.040788
18560	9.940299	-2.486052	-0.503533	0.645655	-0.539651	-0.390338	0.005399	-0.071226	0.997446	0.422486	0.904227	0.062282	-0.906354	0.421070	0.034974
18561	10.136202	-2.203072	-0.620059	0.777468	-0.527827	-0.391630	-0.000086	-0.070522	0.997510	0.415532	0.907311	0.064181	-0.909578	0.414503	0.029226
18562	10.261460	-1.816889	-0.664147	0.876481	-0.480231	-0.374683	-0.006025	-0.071904	0.997393	0.407493	0.910664	0.068114	-0.913188	0.406842	0.023814
18563	10.354645	-1.554013	-0.634546	0.949006	-0.418023	-0.340994	-0.010514	-0.071303	0.997399	0.398452	0.914546	0.069580	-0.917129	0.398147	0.018795
18564	10.248765	-1.453632	-0.535949	0.998137	-0.340555	-0.309942	-0.014888	-0.072751	0.997239	0.389198	0.918273	0.072800	-0.921034	0.389208	0.014643
18565	10.072409	-1.420992	-0.457273	1.045317	-0.265754	-0.284838	-0.017886	-0.072374	0.997217	0.379109	0.922409	0.073744	-0.925179	0.379373	0.010939
18566	9.694614	-1.442367	-0.375961	1.085511	-0.211771	-0.268123	-0.020878	-0.074007	0.997039	0.368950	0.926297	0.076482	-0.929215	0.369454	0.007965
18567	9.413080	-1.360810	-0.242838	1.126796	-0.175331	-0.259165	-0.022868	-0.073677	0.997020	0.358003	0.930542	0.076976	-0.933440	0.358696	0.005097
18568	9.271275	-1.331427	-0.190405	1.146493	-0.159031	-0.255887	-0.025287	-0.075449	0.996829	0.347173	0.934423	0.079532	-0.937460	0.348083	0.002565
18569	9.084535	-1.331566	-0.142478	1.168498	-0.148627	-0.264505	-0.026987	-0.075280	0.996797	0.336378	0.938325	0.079971	-0.941340	0.337458	-0.000000
18570	8.949520	-1.313619	-0.067876	1.183236	-0.149942	-0.271607	-0.029330	-0.077285	0.996578	0.325096	0.942065	0.082625	-0.945226	0.326407	-0.002506
18571	8.880672	-1.285304	-0.040343	1.188362	-0.174226	-0.282688	-0.031126	-0.076987	0.996546	0.314096	0.945767	0.082875	-0.948881	0.315591	-0.005256
18572	8.730478	-1.388986	-0.012830	1.193513	-0.198395	-0.297681	-0.033961	-0.079142	0.996285	0.302609	0.949252	0.085721	-0.952510	0.304396	-0.008289
18573	8.721326	-1.366885	0.016259	1.200128	-0.235238	-0.312051	-0.036402	-0.078939	0.996215	0.291776	0.952600	0.086144	-0.955794	0.293807	-0.011644
18574	8.603139	-1.397309	0.045873	1.208444	-0.275283	-0.322236	-0.039988	-0.081168	0.995898	0.280039	0.955840	0.089147	-0.959155	0.282455	-0.015492
18575	8.538551	-1.439635	0.018617	1.223599	-0.329855	-0.328350	-0.043392	-0.081135	0.995758	0.268643	0.959040	0.089850	-0.962262	0.271402	-0.019818
18576	8.491177	-1.414657	0.020954	1.229985	-0.395502	-0.333192	-0.048109	-0.083234	0.995368	0.256593	0.962049	0.092849	-0.965321	0.259872	-0.024926
18577	8.529904	-1.425181	-0.118827	1.252732	-0.461595	-0.342163	-0.052564	-0.082796	0.995179	0.245554	0.964888	0.093246	-0.967957	0.249272	-0.030388
18578	8.633653	-1.306301	-0.245367	1.265730	-0.527506	-0.349850	-0.058544	-0.084844	0.994673	0.233051	0.967689	0.096259	-0.970701	0.237445	-0.036879
18579	8.969712	-1.176796	-0.400099	1.278351	-0.583386	-0.356845	-0.064178	-0.084325	0.994369	0.221649	0.970331	0.096592	-0.973012	0.226600	-0.043583
18580	9.334940	-1.018068	-0.533194	1.276607	-0.617327	-0.353592	-0.070980	-0.086351	0.993733	0.208936	0.972858	0.099461	-0.975350	0.214687	-0.051012
18581	9.460294	-0.832618	-0.690547	1.268007	-0.635443	-0.351378	-0.077112	-0.085915	0.993314	0.196880	0.975351	0.099645	-0.977390	0.203248	-0.058296
18582	9.700568	-0.753547	-0.833831	1.253007	-0.639050	-0.341386	-0.084042	-0.087940	0.992574	0.184311	0.977539	0.102213	-0.979268	0.191532	-0.065946
18583	9.829109	-0.613893	-0.854567	1.227872	-0.632666	-0.328755	-0.089980	-0.087335	0.992107	0.173058	0.979623	0.101932	-0.980793	0.180864	-0.073032
18584	9.897015	-0.577968	-0.901233	1.204342	-0.609005	-0.322138	-0.096522	-0.089381	0.991309	0.160903	0.981459	0.104160	-0.982239	0.169558	-0.080351
18585	9.864845	-0.450295	-0.981888	1.173942	-0.596418	-0.310362	-0.102119	-0.088682	0.990811	0.151101	0.983078	0.103564	-0.983229	0.160288	-0.086991
18586	9.787195	-0.268577	-1.079161	1.142892	-0.582768	-0.299084	-0.108310	-0.090679	0.989973	0.139514	0.984589	0.105450	-0.984279	0.149536	-0.093990
18587	9.898433	-0.194962	-1.186093	1.091464	-0.575124	-0.304656	-0.113683	-0.090179	0.989416	0.130123	0.985942	0.104814	-0.984959	0.140661	-0.100350
18588	10.144680	-0.037583	-1.234587	1.040922	-0.561552	-0.306538	-0.119619	-0.092399	0.988511	0.119484	0.987083	0.106724	-0.985604	0.130877	-0.107034
18589	10.288205	-0.017316	-1.296225	0.976514	-0.534081	-0.308955	-0.124329	-0.091983	0.987968	0.110639	0.988200	0.105928	-0.986053	0.122478	-0.112685
18590	10.224534	0.052066	-1.278896	0.906178	-0.499672	-0.302779	-0.129596	-0.094344	0.987068	0.101295	0.988996	0.107827	-0.986379	0.113959	-0.118614
18591	9.999198	-0.035375	-1.300843	0.842183	-0.475800	-0.309956	-0.133790	-0.094276	0.986515	0.093604	0.989812	0.107285	-0.986579	0.106696	-0.123602
18592	9.933545	-0.131709	-1.250267	0.798066	-0.464842	-0.330127	-0.138689	-0.097024	0.985572	0.085260	0.990325	0.109490	-0.986659	0.099215	-0.129075
18593	9.923893	-0.165044	-1.256197	0.770339	-0.452249	-0.348636	-0.142657	-0.097213	0.984987	0.079257	0.990847	0.109271	-0.986594	0.093655	-0.133647
18594	9.904755	-0.053456	-1.237696	0.740317	-0.443762	-0.371731	-0.147330	-0.100457	0.983973	0.071398	0.991153	0.111881	-0.986507	0.086737	-0.138854
18595	10.069519	0.130170	-1.226323	0.705123	-0.449562	-0.392734	-0.151334	-0.101488	0.983259	0.065215	0.991523	0.112378	-0.986329	0.081129	-0.143433
18596	10.104831	0.199388	-1.336687	0.655736	-0.465193	-0.405253	-0.156185	-0.105105	0.982120	0.058111	0.991622	0.115363	-0.986017	0.075090	-0.148769
18597	10.173824	0.198628	-1.488243	0.622473	-0.500443	-0.424894	-0.160874	-0.106317	0.981232	0.053884	0.991752	0.116291	-0.985503	0.071581	-0.153818
18598	10.493948	0.229984	-1.558929	0.598237	-0.539004	-0.441243	-0.166416	-0.110285	0.979869	0.047260	0.991692	0.119642	-0.984922	0.066219	-0.159822
18599	10.715072	0.375480	-1.780943	0.582167	-0.544957	-0.448459	-0.171022	-0.111444	0.978944	0.042628	0.991815	0.120356	-0.984345	0.062314	-0.164872
18600	10.957135	0.722340	-1.824394	0.559428	-0.552166	-0.447061	-0.176637	-0.115509	0.977475	0.036342	0.991648	0.123751	-0.983605	0.057383	-0.170963
18601	11.284360	1.082522	-1.941051	0.511724	-0.528264	-0.418835	-0.181534	-0.116995	0.976400	0.032799	0.991625	0.124917	-0.982838	0.054702	-0.176176
18602	11.553211	1.440245	-1.949760	0.448109	-0.500649	-0.377384	-0.186570	-0.120437	0.975032	0.027703	0.991418	0.127762	-0.982051	0.050848	-0.181632
18603	11.897788	1.622109	-1.902159	0.354075	-0.462750	-0.317107	-0.190564	-0.121148	0.974171	0.024636	0.991453	0.128116	-0.981366	0.048414	-0.185951
18604	12.133976	1.665592	-1.971138	0.260691	-0.417914	-0.266112	-0.194725	-0.123552	0.973045	0.021569	0.991256	0.130180	-0.980621	0.046337	-0.190358
18605	11.983710	1.676603	-1.983697	0.182321	-0.381732	-0.231118	-0.197857	-0.123344	0.972439	0.020970	0.991292	0.130002	-0.980006	0.046114	-0.193548
18606	11.806883	1.615419	-2.274788	0.118212	-0.358826	-0.201621	-0.201410	-0.125142	0.971480	0.019416	0.991100	0.131695	-0.979314	0.045387	-0.197188
18607	10.946396	1.632517	-2.660049	0.086338	-0.320184	-0.179739	-0.203887	-0.124573	0.971036	0.019744	0.991146	0.131298	-0.978795	0.045942	-0.199622
18608	10.266549	1.804153	-2.730128	0.084453	-0.358294	-0.175560	-0.207421	-0.126113	0.970089	0.018566	0.990969	0.132797	-0.978076	0.045556	-0.203206
18609	10.664645	2.192622	-2.704180	0.078220	-0.419760	-0.163778	-0.211169	-0.125821	0.969318	0.018702	0.990979	0.132707	-0.977271	0.046152	-0.206911
18610	10.765089	2.634369	-2.936675	0.030605	-0.426239	-0.104696	-0.215346	-0.126627	0.968293	0.018192	0.990865	0.133624	-0.976368	0.046390	-0.211075
18611	9.876199	2.995975	-3.130000	-0.022473	-0.441192	-0.032183	-0.219120	-0.125118	0.967642	0.018947	0.991011	0.132430	-0.975514	0.047352	-0.214780
18612	9.510471	3.296904	-3.250452	-0.072901	-0.492944	0.006027	-0.223917	-0.124786	0.966587	0.019684	0.990988	0.132496	-0.974409	0.048695	-0.219443
18613	9.390641	3.316793	-3.461469	-0.120889	-0.518767	0.032231	-0.228732	-0.122948	0.965694	0.021658	0.991104	0.131313	-0.973248	0.050951	-0.224035
18614	8.884991	3.276531	-3.583995	-0.127608	-0.531544	0.023736	-0.233888	-0.122400	0.964528	0.022969	0.991071	0.131339	-0.971992	0.052873	-0.228988
18615	8.652342	3.247627	-3.543825	-0.107069	-0.576554	-0.021635	-0.239289	-0.121282	0.963344	0.024281	0.991110	0.130809	-0.970645	0.054692	-0.234217
18616	8.873141	3.412807	-3.492677	-0.062370	-0.608965	-0.076426	-0.245205	-0.121666	0.961807	0.024716	0.990987	0.131658	-0.969156	0.056055	-0.239988
18617	8.924175	3.688676	-3.350393	-0.029018	-0.635078	-0.103631	-0.251352	-0.121544	0.960234	0.025064	0.990934	0.131991	-0.967571	0.057243	-0.246027
18618	8.891667	4.054235	-3.342549	-0.022646	-0.652848	-0.103360	-0.257680	-0.122155	0.958478	0.025036	0.990799	0.133005	-0.965906	0.058269	-0.252251
18619	8.564332	4.234298	-3.260354	-0.030123	-0.669731	-0.062834	-0.264176	-0.121708	0.956764	0.025588	0.990772	0.133099	-0.964135	0.059644	-0.258624
18620	8.392757	4.369396	-3.074728	-0.045711	-0.696037	-0.003424	-0.270872	-0.121286	0.954944	0.026037	0.990745	0.133218	-0.962263	0.060949	-0.265207
18621	8.343401	4.224024	-3.031853	-0.066533	-0.713272	0.067699	-0.277779	-0.119679	0.953161	0.027279	0.990826	0.132358	-0.960258	0.062767	-0.271966
18622	8.152546	4.065048	-2.870571	-0.063760	-0.744775	0.114781	-0.284881	-0.118032	0.951268	0.028231	0.990926	0.131408	-0.958147	0.064291	-0.278964
18623	8.221858	4.023345	-2.756910	-0.045479	-0.788848	0.146435	-0.292485	-0.115826	0.949230	0.029165	0.991095	0.129921	-0.955825	0.065685	-0.286503
18624	8.229265	4.108915	-2.811620	-0.022949	-0.819384	0.163503	-0.300249	-0.113625	0.947069	0.029888	0.991271	0.128404	-0.953393	0.066859	-0.294232
18625	7.935827	4.172136	-2.853273	-0.013900	-0.855708	0.197528	-0.308413	-0.110948	0.944760	0.030750	0.991493	0.126474	-0.950755	0.068057	-0.302378
18626	8.078892	4.142781	-2.763255	-0.008864	-0.921290	0.235032	-0.317076	-0.107948	0.942237	0.031588	0.991748	0.124250	-0.947874	0.069160	-0.311050
18627	8.556358	4.080145	-2.798679	-0.018448	-0.965455	0.276711	-0.326191	-0.104553	0.939504	0.032614	0.992028	0.121721	-0.944741	0.070346	-0.320180
18628	8.537120	4.025762	-2.947459	-0.029780	-0.972862	0.320731	-0.335249	-0.100643	0.936739	0.033976	0.992340	0.118776	-0.941517	0.071646	-0.329261
18629	8.389721	3.926700	-3.015391	-0.044589	-0.979504	0.355056	-0.344389	-0.096552	0.933849	0.035562	0.992642	0.115746	-0.938153	0.073071	-0.338422
18630	8.262145	3.812866	-3.129385	-0.060382	-0.972292	0.398089	-0.353338	-0.091845	0.930976	0.037537	0.992975	0.112208	-0.934742	0.074594	-0.347409
18631	8.166761	3.658552	-3.180616	-0.087384	-0.951286	0.443163	-0.362121	-0.086986	0.928064	0.039923	0.993275	0.108676	-0.931276	0.076405	-0.356213
18632	8.140812	3.585233	-3.128271	-0.128735	-0.929664	0.504306	-0.370543	-0.081220	0.925257	0.042989	0.993602	0.104435	-0.927820	0.078473	-0.364681
18633	8.167465	3.395839	-3.144420	-0.182730	-0.897568	0.567025	-0.378668	-0.075244	0.922469	0.046596	0.993876	0.100196	-0.924359	0.080924	-0.372843
18634	8.159039	3.148426	-3.047893	-0.252440	-0.850452	0.632472	-0.386195	-0.068220	0.919891	0.051366	0.994124	0.095289	-0.920986	0.084051	-0.380421
18635	7.972612	2.872899	-3.036319	-0.307270	-0.811765	0.670027	-0.393364	-0.061327	0.917335	0.056545	0.994270	0.090718	-0.917642	0.087556	-0.387643
18636	7.855023	2.612753	-3.071129	-0.353406	-0.779754	0.699197	-0.400080	-0.053640	0.914909	0.062578	0.994357	0.085663	-0.914341	0.091525	-0.394465
18637	7.720943	2.353582	-3.189954	-0.393039	-0.771578	0.715709	-0.406691	-0.046326	0.912390	0.068779	0.994326	0.081144	-0.910973	0.095754	-0.401197
18638	7.967475	2.087968	-3.270442	-0.417614	-0.761978	0.715387	-0.413092	-0.038431	0.909878	0.075530	0.994221	0.076284	-0.907552	0.100236	-0.407802
18639	8.117763	1.761208	-3.332496	-0.422257	-0.747258	0.699695	-0.419318	-0.031266	0.907301	0.081954	0.994023	0.072130	-0.904133	0.104602	-0.414249
18640	8.227106	1.513113	-3.369446	-0.416047	-0.727325	0.672576	-0.425296	-0.023768	0.904742	0.088571	0.993764	0.067742	-0.900710	0.108944	-0.420539
18641	8.285280	1.320446	-3.411665	-0.392699	-0.702715	0.641572	-0.431057	-0.017199	0.902161	0.094521	0.993457	0.064102	-0.897360	0.112905	-0.426611
18642	8.313798	1.114965	-3.470160	-0.354501	-0.681857	0.604161	-0.436564	-0.010380	0.899613	0.100339	0.993133	0.060152	-0.894060	0.116526	-0.432525
18643	8.311091	1.068186	-3.539360	-0.309186	-0.659920	0.564240	-0.441885	-0.004594	0.897060	0.105254	0.992814	0.056932	-0.890876	0.119577	-0.438226
18644	8.337230	1.038609	-3.557956	-0.253605	-0.639611	0.533205	-0.446987	0.001507	0.894539	0.109902	0.992515	0.053244	-0.887764	0.122111	-0.443807
18645	8.350439	1.156248	-3.602574	-0.209523	-0.626020	0.520297	-0.451932	0.006847	0.892026	0.113771	0.992247	0.050024	-0.884768	0.124094	-0.449207
18646	8.583486	1.200258	-3.636914	-0.179173	-0.625293	0.527576	-0.456831	0.012898	0.889460	0.117773	0.991970	0.046104	-0.881723	0.125816	-0.454681
18647	8.834404	1.200929	-3.672460	-0.157912	-0.613191	0.547226	-0.461580	0.018508	0.886906	0.121286	0.991711	0.042427	-0.878768	0.127152	-0.459998
18648	9.018741	1.152191	-3.702774	-0.137602	-0.595315	0.564142	-0.466095	0.024898	0.884385	0.125131	0.991411	0.038037	-0.875841	0.128393	-0.465207
18649	9.204830	1.037603	-3.764991	-0.123740	-0.572432	0.579623	-0.470281	0.030770	0.881980	0.128550	0.991121	0.033967	-0.873104	0.129353	-0.470061
18650	9.317230	0.871618	-3.888038	-0.101661	-0.539348	0.590357	-0.474199	0.037355	0.879625	0.132246	0.990786	0.029217	-0.870429	0.130182	-0.474770
18651	9.389351	0.702881	-3.971176	-0.063193	-0.494053	0.585609	-0.477614	0.043194	0.877508	0.135153	0.990514	0.024805	-0.868112	0.130445	-0.478921
18652	9.410360	0.648071	-4.087485	-0.017281	-0.443642	0.574421	-0.480661	0.049497	0.875508	0.138077	0.990223	0.019823	-0.865967	0.130416	-0.482796
18653	9.340180	0.706859	-4.231150	0.031955	-0.381021	0.556924	-0.483107	0.054881	0.873840	0.140047	0.990027	0.015247	-0.864288	0.129745	-0.485975
18654	9.131580	0.832188	-4.341145	0.072282	-0.320469	0.542703	-0.485095	0.060703	0.872352	0.142071	0.989805	0.010126	-0.862844	0.128848	-0.488773
18655	9.008936	0.899476	-4.484861	0.106310	-0.260817	0.535416	-0.486481	0.065689	0.871218	0.143330	0.989660	0.005416	-0.861854	0.127507	-0.490866
18656	8.878534	0.917818	-4.601329	0.135602	-0.189998	0.530281	-0.487339	0.071212	0.870304	0.144766	0.989466	0.000101	-0.861129	0.126039	-0.492514
18657	8.681730	0.805035	-4.714643	0.167466	-0.133420	0.523904	-0.487632	0.075919	0.869742	0.145420	0.989358	-0.004829	-0.860853	0.124123	-0.493483
18658	8.765119	0.645350	-4.867948	0.201099	-0.088789	0.500241	-0.487652	0.081013	0.869271	0.146149	0.989210	-0.010202	-0.860718	0.122068	-0.494230
18659	8.923337	0.514163	-4.853656	0.246436	-0.054398	0.486222	-0.487400	0.085215	0.869010	0.145960	0.989175	-0.015135	-0.860893	0.119464	-0.494562
18660	9.192988	0.480238	-4.855979	0.288977	-0.050529	0.465696	-0.487141	0.089916	0.868682	0.145762	0.989104	-0.020641	-0.861073	0.116565	-0.494940
18661	9.544585	0.531101	-4.890944	0.315615	-0.056069	0.461646	-0.486824	0.093893	0.868439	0.144845	0.989119	-0.025744	-0.861407	0.113256	-0.495127
18662	9.882251	0.497837	-4.920589	0.323859	-0.062907	0.474105	-0.486665	0.098687	0.867997	0.144383	0.989021	-0.031495	-0.861575	0.109996	-0.495570
18663	10.310156	0.491137	-4.910582	0.326534	-0.051693	0.496769	-0.486262	0.103006	0.867721	0.143519	0.988957	-0.036972	-0.861946	0.106557	-0.495676
18664	10.678534	0.416124	-4.799693	0.322436	-0.006979	0.519180	-0.485562	0.108183	0.867483	0.143282	0.988743	-0.043104	-0.862380	0.103365	-0.495597
18665	10.847104	0.239060	-4.687864	0.317835	0.047772	0.548280	-0.484259	0.112893	0.867611	0.142703	0.988553	-0.048980	-0.863209	0.100092	-0.494826
18666	11.159530	0.016562	-4.547257	0.321070	0.101723	0.565544	-0.482557	0.118418	0.867822	0.142684	0.988211	-0.055505	-0.864164	0.097040	-0.493765
18667	11.317061	-0.263984	-4.498776	0.324697	0.159838	0.579008	-0.480124	0.123333	0.868487	0.142121	0.987923	-0.061726	-0.865611	0.093794	-0.491854
18668	11.330951	-0.476017	-4.484183	0.341816	0.211742	0.587356	-0.477438	0.128974	0.869148	0.141991	0.987492	-0.068538	-0.867117	0.090688	-0.489780
18669	11.141900	-0.665191	-4.513374	0.358354	0.238399	0.589592	-0.474404	0.133865	0.870069	0.141160	0.987149	-0.074910	-0.868916	0.087282	-0.487204
18670	11.042567	-0.823449	-4.501792	0.378419	0.222412	0.579163	-0.471637	0.139425	0.870700	0.140628	0.986676	-0.081822	-0.870507	0.083854	-0.484960
18671	11.256607	-0.945886	-4.477756	0.383321	0.173908	0.571837	-0.469067	0.144214	0.871308	0.139426	0.986298	-0.088187	-0.872088	0.080117	-0.482747
18672	11.065075	-1.009965	-4.698508	0.381548	0.150816	0.571216	-0.466938	0.149763	0.871516	0.138788	0.985752	-0.095035	-0.873331	0.076581	-0.481071
18673	10.170210	-1.059108	-4.851454	0.379824	0.102006	0.570955	-0.464978	0.154639	0.871712	0.137530	0.985291	-0.101428	-0.874575	0.072724	-0.479406
18674	10.012570	-1.230634	-5.181465	0.367544	0.022591	0.555453	-0.464000	0.160129	0.871242	0.136912	0.984671	-0.108061	-0.875191	0.069144	-0.478811
18675	9.547266	-1.408925	-5.710414	0.348762	-0.009319	0.546022	-0.463065	0.164812	0.870866	0.135834	0.984148	-0.114024	-0.875854	0.065492	-0.478112
18676	8.413380	-1.513071	-6.282541	0.341120	-0.026075	0.533126	-0.462551	0.170109	0.870120	0.135332	0.983467	-0.120326	-0.876203	0.062098	-0.477925
18677	7.556239	-1.550845	-6.681517	0.337830	-0.041874	0.509338	-0.462042	0.174488	0.869523	0.134196	0.982920	-0.125935	-0.876646	0.058499	-0.477566
18678	7.311935	-1.535396	-6.820224	0.321852	-0.048554	0.491207	-0.461790	0.179377	0.868662	0.133662	0.982227	-0.131772	-0.876860	0.055256	-0.477559
18679	7.651288	-1.613517	-6.714004	0.289633	-0.026260	0.489659	-0.461217	0.183581	0.868088	0.132940	0.981616	-0.136959	-0.877272	0.052236	-0.477143
18680	8.087510	-1.872747	-6.437275	0.241354	0.027084	0.512901	-0.460277	0.188634	0.867503	0.133205	0.980778	-0.142590	-0.877725	0.049925	-0.476556
18681	8.380737	-2.217061	-6.216251	0.194859	0.108504	0.530899	-0.458557	0.193211	0.867407	0.133566	0.979976	-0.147675	-0.878570	0.048139	-0.475181
18682	8.148707	-2.577600	-6.102761	0.148379	0.202851	0.544717	-0.456022	0.198483	0.867553	0.134773	0.978972	-0.153132	-0.879704	0.047091	-0.473183
18683	7.591045	-2.983609	-6.047225	0.122102	0.275159	0.541113	-0.452692	0.203184	0.868208	0.135786	0.978044	-0.158088	-0.881267	0.046326	-0.470343
18684	7.212895	-3.287858	-5.880003	0.106980	0.325272	0.517482	-0.449095	0.208126	0.868906	0.137196	0.977022	-0.163113	-0.882888	0.045957	-0.467330
18685	6.856539	-3.562436	-5.822290	0.101246	0.346908	0.482185	-0.445386	0.212247	0.869817	0.138220	0.976149	-0.167418	-0.884605	0.045661	-0.464100
18686	6.572212	-3.828555	-5.755874	0.097522	0.345418	0.426654	-0.441714	0.216285	0.870695	0.139270	0.975271	-0.171610	-0.886280	0.045459	-0.460913
18687	6.141760	-4.091081	-5.712503	0.113551	0.311631	0.360802	-0.438374	0.219313	0.871625	0.139672	0.974615	-0.174980	-0.887874	0.045035	-0.457877
18688	5.898892	-4.301134	-5.731233	0.145259	0.257698	0.267719	-0.435688	0.221839	0.872332	0.139572	0.974081	-0.178005	-0.889211	0.044199	-0.455358
18689	5.781670	-4.449080	-5.719062	0.188068	0.185590	0.164373	-0.433885	0.223172	0.872891	0.138519	0.973841	-0.180129	-0.890256	0.042757	-0.453449
18690	5.865948	-4.507993	-5.685391	0.244451	0.114155	0.049513	-0.432778	0.223639	0.873320	0.136578	0.973824	-0.181695	-0.891095	0.040643	-0.451994
18691	6.107780	-4.498684	-5.605498	0.305553	0.040015	-0.063542	-0.432479	0.222963	0.873642	0.133545	0.974096	-0.182491	-0.891700	0.037747	-0.451051
18692	6.412590	-4.370205	-5.513183	0.360336	-0.026022	-0.168328	-0.432910	0.221365	0.873835	0.129624	0.974592	-0.182672	-0.892069	0.034189	-0.450604
18693	6.618408	-4.241126	-5.413199	0.415843	-0.060293	-0.260701	-0.433845	0.218887	0.873995	0.124911	0.975286	-0.182249	-0.892287	0.030104	-0.450464
18694	6.770657	-4.013712	-5.287455	0.464897	-0.078334	-0.343385	-0.434941	0.215591	0.874269	0.119292	0.976153	-0.181368	-0.892522	0.025409	-0.450288
18695	6.882356	-3.775161	-5.160043	0.506627	-0.079040	-0.413365	-0.436238	0.211698	0.874574	0.113145	0.977122	-0.180084	-0.892689	0.020394	-0.450211
18696	7.022476	-3.528940	-5.054099	0.535191	-0.070054	-0.469429	-0.437357	0.207154	0.875103	0.106337	0.978193	-0.178412	-0.892979	0.015026	-0.449848
18697	7.131186	-3.412876	-4.924680	0.561932	-0.052482	-0.509813	-0.438467	0.202361	0.875669	0.099325	0.979264	-0.176566	-0.893242	0.009558	-0.449475
18698	7.203865	-3.233933	-4.835739	0.580903	-0.024832	-0.556246	-0.439200	0.196945	0.876536	0.091716	0.980407	-0.174328	-0.893696	0.003827	-0.448658
18699	7.234981	-3.150914	-4.760180	0.604246	0.007525	-0.593751	-0.439776	0.191365	0.877483	0.083990	0.981517	-0.171959	-0.894171	-0.001924	-0.447721
18700	7.242091	-3.042153	-4.684537	0.624093	0.036051	-0.631970	-0.439938	0.185194	0.878725	0.075649	0.982670	-0.169227	-0.894836	-0.007974	-0.446324
18701	7.202488	-2.938850	-4.672393	0.649260	0.063827	-0.662158	-0.439963	0.178987	0.879998	0.067263	0.983751	-0.166461	-0.895493	-0.014045	-0.444853
18702	7.124413	-2.823964	-4.622852	0.667624	0.081825	-0.686598	-0.439641	0.172277	0.881497	0.058284	0.984836	-0.163405	-0.896280	-0.020462	-0.443016
18703	7.065910	-2.658840	-4.567514	0.684707	0.092546	-0.698308	-0.439322	0.165752	0.882906	0.049446	0.985802	-0.160466	-0.896968	-0.026840	-0.441280
18704	7.034883	-2.621903	-4.524590	0.686823	0.096703	-0.697018	-0.438748	0.158942	0.884442	0.040244	0.986721	-0.157358	-0.897708	-0.033447	-0.439319
18705	7.022707	-2.534471	-4.476684	0.695627	0.096287	-0.700275	-0.438277	0.152438	0.885819	0.031349	0.987507	-0.154427	-0.898293	-0.039913	-0.437581
18706	7.119225	-2.501450	-4.408121	0.706221	0.092200	-0.701474	-0.437618	0.145584	0.887297	0.021952	0.988241	-0.151319	-0.898893	-0.046742	-0.435668
18707	7.212540	-2.474586	-4.373609	0.710237	0.082127	-0.700241	-0.437160	0.139098	0.888562	0.012935	0.988838	-0.148431	-0.899291	-0.053395	-0.434080
18708	7.419434	-2.440975	-4.330968	0.715669	0.084051	-0.699516	-0.436445	0.132262	0.889957	0.003464	0.989376	-0.145339	-0.899724	-0.060350	-0.432266
18709	7.661078	-2.326434	-4.256376	0.721233	0.088472	-0.694376	-0.435810	0.125863	0.891195	-0.005612	0.989775	-0.142530	-0.900021	-0.067117	-0.430648
18710	7.844531	-2.199845	-4.198422	0.719829	0.104332	-0.682720	-0.434785	0.119215	0.892609	-0.015042	0.990099	-0.139562	-0.900409	-0.074106	-0.428687
18711	8.012023	-2.089597	-4.134450	0.708650	0.129552	-0.665643	-0.433662	0.113163	0.893941	-0.023840	0.990294	-0.136926	-0.900760	-0.080691	-0.426755
18712	8.123944	-1.960546	-4.052842	0.695967	0.160937	-0.650192	-0.432012	0.106896	0.895510	-0.032903	0.990422	-0.134098	-0.901267	-0.087397	-0.424357
18713	8.244240	-1.863693	-4.050998	0.675124	0.197387	-0.624794	-0.430173	0.101352	0.897039	-0.041160	0.990442	-0.131643	-0.901808	-0.093551	-0.421890
18714	8.179803	-1.836990	-4.017412	0.655603	0.231428	-0.601742	-0.427797	0.095653	0.898799	-0.049633	0.990398	-0.129025	-0.902511	-0.099807	-0.418942
18715	8.141938	-1.817893	-4.035620	0.635884	0.262306	-0.580799	-0.425291	0.090643	0.900506	-0.057320	0.990277	-0.126751	-0.903239	-0.105523	-0.415961
18716	8.175826	-1.764339	-4.066307	0.617702	0.289592	-0.557551	-0.422319	0.085474	0.902408	-0.065243	0.990096	-0.124312	-0.904096	-0.111375	-0.412560
18717	8.168795	-1.677937	-4.086471	0.594486	0.317162	-0.529049	-0.419262	0.081083	0.904237	-0.072288	0.989860	-0.122279	-0.904983	-0.116632	-0.409150
18718	8.262780	-1.554906	-4.049059	0.558602	0.344881	-0.498099	-0.415749	0.076602	0.906248	-0.079403	0.989584	-0.120074	-0.906007	-0.121880	-0.405336
18719	8.397448	-1.500405	-4.025975	0.513501	0.380287	-0.448755	-0.412114	0.073112	0.908194	-0.085374	0.989291	-0.118381	-0.907124	-0.126323	-0.401459
18720	8.603027	-1.431935	-3.988965	0.467411	0.402685	-0.413628	-0.408081	0.069576	0.910291	-0.091291	0.988984	-0.116516	-0.908370	-0.130649	-0.397234
18721	8.793915	-1.449486	-3.957286	0.393968	0.423332	-0.364707	-0.404074	0.067016	0.912268	-0.095780	0.988731	-0.115057	-0.909698	-0.133869	-0.393102
18722	8.984046	-1.522635	-3.995684	0.335129	0.434969	-0.328403	-0.399781	0.064396	0.914346	-0.100129	0.988491	-0.113397	-0.911125	-0.136887	-0.388732
18723	9.273103	-1.621054	-4.079679	0.265047	0.425121	-0.296408	-0.395787	0.062529	0.916211	-0.103165	0.988337	-0.112017	-0.912529	-0.138856	-0.384720
18724	9.535369	-1.778554	-4.123766	0.202489	0.412323	-0.279692	-0.391718	0.060379	0.918102	-0.106094	0.988224	-0.110257	-0.913948	-0.140594	-0.380699
18725	9.769907	-1.903817	-4.141125	0.141307	0.401848	-0.270293	-0.387940	0.058737	0.919811	-0.107914	0.988209	-0.108619	-0.915345	-0.141398	-0.377027
18726	10.061184	-2.018079	-4.105715	0.088381	0.398360	-0.264142	-0.383993	0.056730	0.921592	-0.109721	0.988235	-0.106549	-0.916794	-0.142032	-0.373251
18727	10.282669	-2.123148	-4.108071	0.032868	0.411097	-0.252374	-0.380124	0.055312	0.923280	-0.110384	0.988363	-0.104658	-0.918325	-0.141698	-0.369595
18728	10.419625	-2.160000	-4.095310	-0.003241	0.440218	-0.246233	-0.375794	0.053540	0.925155	-0.111263	0.988501	-0.102401	-0.920000	-0.141417	-0.365516
18729	10.387129	-2.085667	-4.120983	-0.043008	0.469988	-0.245346	-0.371371	0.052279	0.927012	-0.111170	0.988728	-0.100295	-0.921805	-0.140302	-0.361373
18730	10.399044	-2.133393	-4.046523	-0.078968	0.490094	-0.244105	-0.366567	0.050589	0.929015	-0.111320	0.988963	-0.097777	-0.923708	-0.139260	-0.356889
18731	10.551856	-2.066950	-4.079233	-0.106671	0.486508	-0.243027	-0.361979	0.049353	0.930879	-0.110638	0.989265	-0.095471	-0.925597	-0.137549	-0.352632
18732	10.421405	-1.977249	-4.093661	-0.129776	0.483099	-0.233223	-0.357235	0.047745	0.932793	-0.110253	0.989555	-0.092874	-0.927484	-0.136021	-0.348240
18733	10.623435	-1.797890	-4.055756	-0.152577	0.416524	-0.242424	-0.353281	0.046422	0.934365	-0.109070	0.989913	-0.090420	-0.929137	-0.133855	-0.344654
18734	11.302507	-1.524041	-4.122017	-0.174431	0.346979	-0.247438	-0.349776	0.044472	0.935777	-0.108296	0.990257	-0.087540	-0.930553	-0.131961	-0.341552
18735	11.524963	-1.300207	-4.104910	-0.199539	0.289954	-0.242524	-0.346992	0.042962	0.936883	-0.106652	0.990663	-0.084929	-0.931784	-0.129390	-0.339170
18736	12.145563	-1.090423	-3.921010	-0.220481	0.188738	-0.249636	-0.344959	0.040770	0.937732	-0.105438	0.991050	-0.081875	-0.932677	-0.127116	-0.337572
18737	12.595951	-0.751184	-4.230590	-0.245739	0.169763	-0.236265	-0.343300	0.039137	0.938410	-0.103360	0.991489	-0.079163	-0.933521	-0.124171	-0.336333
18738	11.030947	-0.573599	-4.770254	-0.241587	0.223031	-0.208400	-0.340994	0.037384	0.939322	-0.101795	0.991865	-0.076429	-0.934538	-0.121680	-0.334414
18739	9.626720	-0.260476	-5.182785	-0.202273	0.265690	-0.237142	-0.338441	0.035834	0.940305	-0.100105	0.992233	-0.073843	-0.935648	-0.119121	-0.332225
18740	8.974611	0.011920	-5.296854	-0.126940	0.317022	-0.299632	-0.335164	0.033276	0.941572	-0.099904	0.992487	-0.070637	-0.936848	-0.117742	-0.329321
18741	8.837738	0.255937	-5.218444	-0.044285	0.362014	-0.356680	-0.331608	0.030632	0.942920	-0.100039	0.992696	-0.067431	-0.938098	-0.116689	-0.326122
18742	9.009297	0.561064	-4.914806	0.038885	0.404604	-0.395657	-0.327402	0.027217	0.944493	-0.101685	0.992765	-0.063856	-0.939398	-0.116948	-0.322266
18743	8.790393	0.929742	-4.786645	0.112460	0.460396	-0.424428	-0.322861	0.023973	0.946143	-0.103533	0.992785	-0.060484	-0.940767	-0.117485	-0.318049
18744	8.141278	1.222057	-4.545132	0.194343	0.493480	-0.474284	-0.317707	0.019889	0.947980	-0.106860	0.992660	-0.056639	-0.942148	-0.119296	-0.313250
18745	8.053527	1.584984	-4.190390	0.264806	0.461290	-0.521574	-0.313036	0.015655	0.949612	-0.110431	0.992482	-0.052765	-0.943299	-0.121384	-0.308954
18746	8.164924	1.935302	-3.943274	0.306407	0.438695	-0.545729	-0.308273	0.010819	0.951237	-0.114997	0.992179	-0.048552	-0.944322	-0.124356	-0.304617
18747	7.815197	2.320689	-3.908305	0.336815	0.381538	-0.551539	-0.304280	0.006179	0.952563	-0.119277	0.991862	-0.044535	-0.945086	-0.127170	-0.301067
18748	7.384589	2.793590	-3.942412	0.338511	0.291601	-0.541466	-0.300857	0.001225	0.953668	-0.124094	0.991447	-0.040422	-0.945561	-0.130506	-0.298132
18749	7.141176	3.183787	-4.031657	0.318258	0.175313	-0.518137	-0.298817	-0.003391	0.954304	-0.128110	0.991085	-0.036593	-0.945672	-0.133190	-0.296588
18750	7.354228	3.458868	-4.110723	0.272621	0.044801	-0.462964	-0.297785	-0.007878	0.954600	-0.132047	0.990693	-0.033016	-0.945456	-0.135884	-0.296054
18751	7.623348	3.514840	-4.317208	0.204523	-0.064921	-0.386078	-0.298171	-0.011638	0.954442	-0.134878	0.990406	-0.030059	-0.944935	-0.137696	-0.296880
18752	7.563373	3.399225	-4.492592	0.149498	-0.150153	-0.316059	-0.299153	-0.014936	0.954088	-0.137212	0.990159	-0.027523	-0.944288	-0.139146	-0.298259
18753	7.812964	3.208187	-4.553473	0.100842	-0.227640	-0.249646	-0.301257	-0.017636	0.953380	-0.138688	0.990007	-0.025510	-0.943403	-0.139908	-0.300692
18754	8.457087	2.976055	-4.520177	0.064955	-0.272951	-0.191423	-0.303559	-0.019873	0.952606	-0.139858	0.989883	-0.023916	-0.942492	-0.140489	-0.303267
18755	9.074042	2.758092	-4.499276	0.029214	-0.261674	-0.118236	-0.306167	-0.021377	0.951738	-0.140291	0.989845	-0.022898	-0.941584	-0.140531	-0.306057
18756	9.416852	2.510650	-4.335354	-0.002155	-0.203156	-0.041804	-0.308016	-0.022036	0.951126	-0.140377	0.989842	-0.022527	-0.940968	-0.140455	-0.307980
18757	9.787620	2.264605	-4.091696	-0.027265	-0.118284	0.033278	-0.309488	-0.021884	0.950651	-0.139837	0.989913	-0.022736	-0.940565	-0.139973	-0.309427
18758	9.832481	2.084739	-3.884151	-0.055205	-0.015500	0.106391	-0.309778	-0.020812	0.950581	-0.138966	0.990016	-0.023611	-0.940599	-0.139412	-0.309577
18759	9.575891	1.868666	-3.709845	-0.079566	0.071634	0.171675	-0.309649	-0.019063	0.950660	-0.137525	0.990184	-0.024939	-0.940853	-0.138462	-0.309232
18760	9.158358	1.740482	-3.560942	-0.105139	0.132671	0.224429	-0.308703	-0.016618	0.951013	-0.135819	0.990372	-0.026782	-0.941411	-0.137433	-0.307988
18761	8.843915	1.538001	-3.334985	-0.131782	0.171142	0.272855	-0.307761	-0.013763	0.951364	-0.133594	0.990615	-0.028886	-0.942038	-0.135986	-0.306712
18762	8.806032	1.400337	-3.098305	-0.150072	0.192211	0.296571	-0.306338	-0.010525	0.951865	-0.131246	0.990856	-0.031283	-0.942832	-0.134512	-0.304918
18763	8.665950	1.190303	-2.920663	-0.169600	0.222287	0.309659	-0.304938	-0.007267	0.952344	-0.128572	0.991131	-0.033605	-0.943653	-0.132692	-0.303168
18764	8.445795	1.037360	-2.716157	-0.180489	0.230326	0.309782	-0.303154	-0.003853	0.952934	-0.125903	0.991387	-0.036045	-0.944588	-0.130904	-0.301028
18765	8.330004	0.990077	-2.535442	-0.197040	0.232882	0.303901	-0.301616	-0.000665	0.953429	-0.123007	0.991669	-0.038221	-0.945461	-0.128807	-0.299185
18766	8.238834	0.984133	-2.365920	-0.212500	0.225881	0.292029	-0.299830	0.002559	0.953989	-0.120096	0.991940	-0.040406	-0.946403	-0.126686	-0.297106
18767	8.251365	0.985040	-2.259916	-0.239378	0.210853	0.278829	-0.298437	0.005443	0.954414	-0.116895	0.992247	-0.042211	-0.947244	-0.124164	-0.295487
18768	8.292535	0.993842	-2.171554	-0.275545	0.196242	0.259130	-0.296872	0.008295	0.954881	-0.113490	0.992568	-0.043907	-0.948149	-0.121404	-0.293724
18769	8.361851	0.987499	-2.074882	-0.319313	0.177133	0.249067	-0.295727	0.010815	0.955211	-0.109639	0.992944	-0.045186	-0.948960	-0.118091	-0.292455
18770	8.392409	0.968378	-2.015986	-0.363947	0.155241	0.232220	-0.294499	0.013341	0.955559	-0.105476	0.993340	-0.046376	-0.949813	-0.114446	-0.291131
18771	8.491074	0.862764	-2.012682	-0.413837	0.132080	0.214945	-0.293708	0.015442	0.955770	-0.100845	0.993789	-0.047046	-0.950561	-0.110202	-0.290327
18772	8.634283	0.597711	-2.063399	-0.446775	0.116136	0.186183	-0.292783	0.017457	0.956020	-0.096027	0.994242	-0.047563	-0.951345	-0.105730	-0.289421
18773	8.722012	0.336500	-2.142035	-0.460846	0.110848	0.146332	-0.292092	0.018830	0.956205	-0.091162	0.994706	-0.047435	-0.952036	-0.101025	-0.288829
18774	8.745445	0.180483	-2.226168	-0.447696	0.107486	0.109323	-0.291161	0.020062	0.956464	-0.086557	0.995127	-0.047222	-0.952750	-0.096538	-0.288006
18775	8.724706	0.082209	-2.333897	-0.423118	0.108290	0.074407	-0.290406	0.020702	0.956679	-0.082267	0.995524	-0.046515	-0.953361	-0.092211	-0.287404
18776	8.659053	0.017676	-2.439240	-0.377503	0.110103	0.043789	-0.289387	0.021275	0.956976	-0.078517	0.995856	-0.045883	-0.953986	-0.088417	-0.286517
18777	8.679911	0.008081	-2.585809	-0.339868	0.116196	0.027378	-0.288506	0.021443	0.957238	-0.075160	0.996157	-0.044967	-0.954524	-0.084919	-0.285785
18778	8.714674	0.019712	-2.735888	-0.288069	0.125448	0.012351	-0.287312	0.021708	0.957591	-0.072351	0.996395	-0.044296	-0.955100	-0.082010	-0.284706
18779	8.503013	0.005650	-2.945477	-0.232113	0.150659	0.008849	-0.286081	0.021711	0.957959	-0.070076	0.996592	-0.043514	-0.955640	-0.079578	-0.283585
18780	8.508645	-0.013452	-3.051627	-0.170625	0.164449	0.001726	-0.284506	0.021895	0.958424	-0.068417	0.996726	-0.043079	-0.956230	-0.077829	-0.282077
18781	8.491591	-0.107311	-3.156319	-0.101650	0.190737	0.000855	-0.282886	0.021844	0.958905	-0.067409	0.996816	-0.042594	-0.956782	-0.076688	-0.280512
18782	8.275290	-0.268535	-3.213763	-0.015021	0.203374	-0.005599	-0.280931	0.021981	0.959476	-0.067258	0.996829	-0.042530	-0.957368	-0.076481	-0.278562
18783	8.558781	-0.398991	-3.067757	0.083979	0.177479	-0.019450	-0.279427	0.021720	0.959921	-0.068078	0.996780	-0.042371	-0.957750	-0.077189	-0.277049
18784	9.161873	-0.487276	-3.125275	0.178617	0.159897	-0.035462	-0.277867	0.021528	0.960378	-0.069865	0.996648	-0.042555	-0.958076	-0.078922	-0.275431
18785	9.097322	-0.524858	-3.218262	0.279171	0.161661	-0.046050	-0.276497	0.021002	0.960785	-0.072623	0.996446	-0.042681	-0.958267	-0.081576	-0.273989
18786	9.239826	-0.607184	-3.125005	0.397394	0.119919	-0.063832	-0.275296	0.020503	0.961141	-0.076584	0.996127	-0.043185	-0.958304	-0.085497	-0.272660
18787	10.293990	-0.699187	-3.151971	0.507092	0.108272	-0.084733	-0.274407	0.019565	0.961415	-0.081625	0.995711	-0.043561	-0.958143	-0.090429	-0.271633
18788	10.602631	-0.839099	-3.213808	0.624209	0.158263	-0.072009	-0.272827	0.019033	0.961875	-0.087780	0.995141	-0.044589	-0.958050	-0.096598	-0.269831
18789	10.629645	-0.833281	-3.028085	0.751996	0.195145	-0.067586	-0.271111	0.018376	0.962373	-0.095111	0.994413	-0.045782	-0.957838	-0.103944	-0.267848
18790	11.225921	-0.852806	-2.707249	0.868278	0.220055	-0.058816	-0.268943	0.018066	0.962987	-0.103563	0.993485	-0.047561	-0.957572	-0.112521	-0.265320
18791	11.911431	-0.869921	-1.981719	0.965750	0.216182	-0.042291	-0.267038	0.017727	0.963523	-0.112863	0.992375	-0.049538	-0.957054	-0.121975	-0.263001
18792	13.117648	-0.928671	-1.635773	1.028755	0.152183	-0.031359	-0.265544	0.017645	0.963937	-0.122766	0.991074	-0.051962	-0.956251	-0.132137	-0.261007
18793	12.604513	-0.864084	-1.956576	1.069362	0.172011	0.011521	-0.264102	0.017830	0.964330	-0.132909	0.989618	-0.054697	-0.955293	-0.142614	-0.258991
18794	10.984946	-0.829902	-2.102671	1.128739	0.090226	0.027526	-0.263279	0.018271	0.964547	-0.143589	0.987942	-0.057908	-0.953974	-0.153744	-0.257480
18795	10.482975	-0.554057	-2.678064	1.163910	-0.007102	0.027787	-0.263560	0.018373	0.964468	-0.154568	0.986096	-0.061024	-0.952179	-0.165160	-0.257055
18796	9.115203	-0.398964	-3.256645	1.177185	-0.110107	0.048658	-0.264685	0.018700	0.964153	-0.165613	0.984076	-0.064551	-0.950007	-0.176763	-0.257374
18797	8.348588	-0.158263	-3.753261	1.164625	-0.277239	0.080459	-0.267626	0.018826	0.963339	-0.176403	0.981953	-0.068197	-0.947237	-0.188187	-0.259475
18798	8.530390	-0.073322	-4.186139	1.109013	-0.434095	0.134950	-0.271978	0.019344	0.962109	-0.186504	0.979781	-0.072422	-0.944057	-0.199134	-0.262871
18799	8.294644	-0.212938	-4.642700	1.013670	-0.539088	0.213072	-0.277653	0.020168	0.960470	-0.195415	0.977692	-0.077021	-0.940596	-0.209075	-0.267518
18800	8.092273	-0.428228	-4.934426	0.913587	-0.636820	0.314232	-0.284261	0.021912	0.958497	-0.203086	0.975676	-0.082534	-0.936991	-0.218118	-0.272896
18801	8.770469	-0.790363	-4.924995	0.806110	-0.699860	0.387265	-0.291817	0.023971	0.956174	-0.209434	0.973825	-0.088332	-0.933263	-0.226032	-0.279158
18802	9.773589	-1.295016	-4.834835	0.705244	-0.670317	0.454344	-0.299028	0.026888	0.953865	-0.214638	0.972093	-0.094689	-0.929792	-0.233051	-0.284912
18803	10.554180	-1.797822	-4.642918	0.610797	-0.558362	0.490367	-0.305507	0.030179	0.951711	-0.218731	0.970545	-0.100990	-0.926726	-0.239022	-0.289908
18804	10.752339	-2.230499	-4.600813	0.533929	-0.376947	0.500263	-0.310103	0.034153	0.950089	-0.222109	0.969096	-0.107332	-0.924394	-0.244307	-0.292934
18805	10.031147	-2.619967	-4.524881	0.468634	-0.184349	0.498019	-0.313165	0.038384	0.948923	-0.224770	0.967799	-0.113326	-0.922717	-0.248779	-0.294453
18806	9.229472	-3.021976	-4.405264	0.430476	-0.039159	0.475813	-0.314606	0.042921	0.948252	-0.227222	0.966528	-0.119135	-0.921625	-0.252944	-0.294323
18807	8.685379	-3.299067	-4.165168	0.404082	0.054395	0.438369	-0.315369	0.047181	0.947796	-0.229422	0.965346	-0.124392	-0.920819	-0.256675	-0.293616
18808	8.230229	-3.523162	-3.969002	0.387281	0.103904	0.394794	-0.315327	0.051291	0.947596	-0.231718	0.964152	-0.129295	-0.920258	-0.260345	-0.292138
18809	7.725835	-3.736039	-3.854637	0.374599	0.100887	0.344328	-0.315482	0.054793	0.947348	-0.233906	0.963037	-0.133594	-0.919652	-0.263737	-0.291004
18810	7.245885	-3.887994	-3.727348	0.361904	0.059670	0.295092	-0.315632	0.057824	0.947118	-0.236277	0.961913	-0.137468	-0.918994	-0.267171	-0.289948
18811	6.941789	-3.985139	-3.707638	0.370923	-0.010286	0.221702	-0.316553	0.059884	0.946683	-0.238778	0.960839	-0.140622	-0.918030	-0.270561	-0.289858
18812	6.899388	-4.050848	-3.620665	0.382796	-0.102326	0.148548	-0.317855	0.061064	0.946171	-0.241793	0.959708	-0.143166	-0.916790	-0.274284	-0.290283
18813	6.921013	-3.999564	-3.689740	0.397474	-0.191794	0.073876	-0.320112	0.061238	0.945398	-0.244959	0.958624	-0.145038	-0.915163	-0.278012	-0.291866
18814	6.956313	-3.978749	-3.744876	0.419515	-0.277046	-0.009591	-0.322628	0.060403	0.944597	-0.248800	0.957457	-0.146203	-0.913241	-0.282185	-0.293874
18815	7.090014	-3.879519	-3.835884	0.445640	-0.354434	-0.094506	-0.325964	0.058523	0.943569	-0.252900	0.956309	-0.146680	-0.910928	-0.286441	-0.296922
18816	7.334538	-3.754295	-3.914650	0.470385	-0.415555	-0.179652	-0.329293	0.055638	0.942587	-0.257742	0.955056	-0.146417	-0.908370	-0.291158	-0.300153
18817	7.550963	-3.607477	-4.010797	0.497983	-0.453886	-0.263066	-0.333086	0.051862	0.941469	-0.262830	0.953804	-0.145529	-0.905524	-0.295921	-0.304068
18818	7.736640	-3.422178	-4.093250	0.519685	-0.479120	-0.347214	-0.336503	0.047154	0.940501	-0.268665	0.952427	-0.143878	-0.902543	-0.301096	-0.307826
18819	7.947350	-3.178408	-4.167785	0.530386	-0.475486	-0.407840	-0.340062	0.041924	0.939468	-0.274502	0.951073	-0.141804	-0.899448	-0.306108	-0.311916
18820	8.118017	-2.948599	-4.277832	0.530234	-0.456672	-0.462491	-0.342888	0.036150	0.938681	-0.280816	0.949621	-0.139150	-0.896421	-0.311309	-0.315462
18821	8.158467	-2.756445	-4.275784	0.524715	-0.420034	-0.501338	-0.345624	0.030191	0.937887	-0.286899	0.948222	-0.136250	-0.893439	-0.316170	-0.319067
18822	8.199590	-2.560587	-4.273454	0.511113	-0.387037	-0.529627	-0.347551	0.023971	0.937355	-0.293267	0.946741	-0.132948	-0.890619	-0.321102	-0.322011
18823	8.229987	-2.397074	-4.291074	0.484805	-0.351199	-0.546326	-0.349474	0.017798	0.936777	-0.299132	0.945376	-0.129556	-0.887912	-0.325496	-0.325060
18824	8.181725	-2.340216	-4.249882	0.460127	-0.327024	-0.551131	-0.350720	0.011551	0.936409	-0.305114	0.943954	-0.125921	-0.885382	-0.329875	-0.327539
18825	8.265487	-2.307147	-4.262663	0.441688	-0.302263	-0.557764	-0.352110	0.005430	0.935943	-0.310620	0.942630	-0.122327	-0.882912	-0.333795	-0.330223
18826	8.166446	-2.287387	-4.239507	0.417051	-0.277955	-0.551254	-0.352846	-0.000665	0.935681	-0.316213	0.941249	-0.118575	-0.880630	-0.337714	-0.332326
18827	8.187877	-2.343532	-4.200152	0.400475	-0.272790	-0.539216	-0.353976	-0.006510	0.935232	-0.321274	0.939971	-0.115056	-0.878341	-0.341193	-0.334819
18828	8.196772	-2.401315	-4.180344	0.392103	-0.265783	-0.532040	-0.354598	-0.012388	0.934937	-0.326572	0.938582	-0.111424	-0.876134	-0.344834	-0.336865
18829	8.148590	-2.447751	-4.151120	0.391537	-0.258071	-0.519811	-0.355611	-0.017993	0.934461	-0.331469	0.937253	-0.108095	-0.873882	-0.348185	-0.339262
18830	8.195116	-2.449596	-4.100854	0.390203	-0.255636	-0.507793	-0.356161	-0.023613	0.934126	-0.336654	0.935789	-0.104704	-0.871673	-0.351769	-0.341241
18831	8.145739	-2.479625	-4.040626	0.393404	-0.247519	-0.492957	-0.357124	-0.028919	0.933609	-0.341455	0.934383	-0.101671	-0.869408	-0.355095	-0.343565
18832	8.182474	-2.395937	-3.963119	0.406621	-0.241086	-0.475348	-0.357597	-0.034187	0.933250	-0.346657	0.932789	-0.098660	-0.867152	-0.358798	-0.345414
18833	8.229719	-2.399806	-3.911265	0.410889	-0.237066	-0.463706	-0.358525	-0.039171	0.932698	-0.351486	0.931258	-0.095999	-0.864822	-0.362248	-0.347647
18834	8.200165	-2.359464	-3.812233	0.421872	-0.234308	-0.443147	-0.358996	-0.044118	0.932296	-0.356692	0.929545	-0.093362	-0.862492	-0.366059	-0.349440
18835	8.126308	-2.310796	-3.744030	0.430223	-0.240299	-0.422404	-0.360053	-0.048720	0.931659	-0.361521	0.927894	-0.091192	-0.860037	-0.369648	-0.351704
18836	8.205516	-2.244314	-3.696425	0.438066	-0.242841	-0.399905	-0.360700	-0.053300	0.931158	-0.366696	0.926070	-0.089038	-0.857572	-0.373568	-0.353579
18837	8.314425	-2.191163	-3.638485	0.450126	-0.237763	-0.383282	-0.361834	-0.057521	0.930466	-0.371536	0.924301	-0.087341	-0.855007	-0.377305	-0.355815
18838	8.392714	-2.122073	-3.531877	0.455147	-0.227724	-0.360010	-0.362451	-0.061680	0.929960	-0.376697	0.922369	-0.085641	-0.852484	-0.381354	-0.357548
18839	8.430367	-1.977833	-3.500467	0.462577	-0.208822	-0.336897	-0.363470	-0.065355	0.929311	-0.381457	0.920520	-0.084458	-0.849930	-0.385189	-0.359512
18840	8.363893	-1.899564	-3.413230	0.457628	-0.185469	-0.300157	-0.363912	-0.068805	0.928889	-0.386403	0.918557	-0.083342	-0.847503	-0.389255	-0.360860
18841	8.480796	-1.818299	-3.396086	0.447386	-0.166662	-0.269351	-0.364797	-0.071690	0.928323	-0.390769	0.916761	-0.082761	-0.845117	-0.392951	-0.362446
18842	8.488648	-1.778845	-3.443801	0.439335	-0.134654	-0.247226	-0.364984	-0.074458	0.928032	-0.395350	0.914855	-0.082086	-0.842903	-0.396858	-0.363344
18843	8.421099	-1.808468	-3.513288	0.422019	-0.118896	-0.218963	-0.365637	-0.076688	0.927593	-0.399302	0.913154	-0.081902	-0.840754	-0.400336	-0.364504
18844	8.372855	-1.789888	-3.636214	0.398876	-0.095429	-0.195590	-0.365676	-0.078828	0.927398	-0.403338	0.911409	-0.081568	-0.838809	-0.403882	-0.365075
18845	8.603693	-1.804195	-3.647262	0.373406	-0.084657	-0.168259	-0.366228	-0.080452	0.927041	-0.406681	0.909910	-0.081694	-0.836951	-0.406928	-0.365953
18846	8.789659	-1.904038	-3.728729	0.335478	-0.066927	-0.145950	-0.366216	-0.082025	0.926908	-0.409990	0.908433	-0.081595	-0.835341	-0.409904	-0.366312
18847	8.723216	-2.025978	-3.774186	0.298702	-0.051183	-0.121538	-0.366670	-0.083081	0.926634	-0.412526	0.907257	-0.081893	-0.833892	-0.412289	-0.366937
18848	8.729704	-2.152825	-3.808435	0.276107	-0.038829	-0.113947	-0.366546	-0.084247	0.926578	-0.415214	0.906032	-0.081876	-0.832611	-0.414740	-0.367083
18849	8.789345	-2.254382	-3.854878	0.245258	-0.025463	-0.105715	-0.366849	-0.085043	0.926385	-0.417237	0.905078	-0.082139	-0.831466	-0.416655	-0.367510
18850	8.668135	-2.395344	-3.974138	0.220128	-0.012856	-0.100886	-0.366559	-0.085982	0.926413	-0.419406	0.904084	-0.082039	-0.830502	-0.418615	-0.367462
18851	8.652548	-2.485712	-4.119722	0.206118	-0.011742	-0.110973	-0.366727	-0.086757	0.926275	-0.421112	0.903283	-0.082122	-0.829564	-0.420182	-0.367793
18852	8.988912	-2.611952	-4.204559	0.185746	-0.019915	-0.125488	-0.366389	-0.087947	0.926296	-0.423081	0.902404	-0.081668	-0.828711	-0.421821	-0.367840
18853	9.244133	-2.684770	-4.335265	0.174670	-0.018140	-0.145526	-0.366469	-0.089046	0.926159	-0.424643	0.901701	-0.081331	-0.827876	-0.423092	-0.368258
18854	9.321743	-2.716390	-4.468577	0.166758	-0.010778	-0.170311	-0.365861	-0.090600	0.926249	-0.426615	0.900853	-0.080394	-0.827131	-0.424565	-0.368238
18855	9.331300	-2.604484	-4.648361	0.161042	-0.001966	-0.203526	-0.365565	-0.092138	0.926214	-0.428265	0.900151	-0.079485	-0.826409	-0.425722	-0.368523
18856	9.401314	-2.483074	-4.718605	0.161214	0.008367	-0.235131	-0.364515	-0.094191	0.926422	-0.430423	0.899257	-0.077927	-0.825751	-0.427159	-0.368335
18857	9.517997	-2.299229	-4.806549	0.146320	0.018515	-0.261096	-0.363806	-0.096146	0.926499	-0.432149	0.898556	-0.076445	-0.825162	-0.428196	-0.368450
18858	9.762395	-2.151280	-4.700921	0.134635	-0.004262	-0.285953	-0.362633	-0.098706	0.926690	-0.434266	0.897714	-0.074317	-0.824567	-0.429380	-0.368405
18859	10.662068	-1.961246	-4.470502	0.117000	-0.075287	-0.328514	-0.362405	-0.101658	0.926460	-0.435985	0.897060	-0.072112	-0.823760	-0.430056	-0.369420
18860	11.753765	-1.705401	-4.530164	0.074482	-0.139328	-0.353657	-0.362038	-0.105403	0.926185	-0.437847	0.896387	-0.069139	-0.822933	-0.430558	-0.370677
18861	11.839075	-1.533725	-4.617234	0.037239	-0.186451	-0.357098	-0.362588	-0.109083	0.925544	-0.439015	0.896024	-0.066383	-0.822068	-0.430397	-0.372776
18862	12.186297	-1.187440	-4.768772	-0.002403	-0.259937	-0.376078	-0.363102	-0.113544	0.924805	-0.440327	0.895630	-0.062922	-0.821139	-0.430064	-0.375202
18863	11.943616	-0.863490	-5.296196	-0.048370	-0.247096	-0.364737	-0.364101	-0.117549	0.923911	-0.440833	0.895596	-0.059779	-0.820425	-0.429056	-0.377907
18864	10.559882	-0.588865	-5.714142	-0.061658	-0.210575	-0.366268	-0.364246	-0.121706	0.923316	-0.441628	0.895437	-0.056190	-0.819933	-0.428229	-0.379908
18865	9.911514	-0.313431	-6.046082	-0.052822	-0.180414	-0.403657	-0.364521	-0.125778	0.922662	-0.442249	0.895344	-0.052668	-0.819475	-0.427245	-0.381997
18866	9.781515	0.009252	-6.174925	-0.017133	-0.096513	-0.437812	-0.363407	-0.130083	0.922504	-0.443669	0.894872	-0.048590	-0.819203	-0.426945	-0.382917
18867	9.586887	0.255075	-5.940971	0.026431	0.007313	-0.476964	-0.361818	-0.134021	0.922565	-0.445205	0.894313	-0.044687	-0.819073	-0.426899	-0.383246
18868	9.851001	0.492974	-5.593313	0.072250	0.115983	-0.508041	-0.358636	-0.138040	0.923215	-0.447593	0.893329	-0.040302	-0.819171	-0.427678	-0.382166
18869	9.981359	0.824379	-5.253618	0.105536	0.251181	-0.525798	-0.354815	-0.141383	0.924184	-0.449934	0.892327	-0.036230	-0.819552	-0.428677	-0.380224
18870	9.299124	1.223249	-4.951253	0.135928	0.385779	-0.533915	-0.349279	-0.144461	0.925816	-0.452894	0.890996	-0.031833	-0.820299	-0.430416	-0.376632
18871	8.698283	1.634525	-4.648330	0.153688	0.469352	-0.534198	-0.343594	-0.146944	0.927551	-0.455623	0.889738	-0.027824	-0.821188	-0.432174	-0.372660
18872	8.478518	2.020650	-4.273563	0.145488	0.514247	-0.529821	-0.336984	-0.149401	0.929581	-0.458588	0.888339	-0.023471	-0.822276	-0.434204	-0.367870
18873	8.388395	2.382172	-3.926084	0.113746	0.512310	-0.507412	-0.331022	-0.151462	0.931388	-0.460857	0.887260	-0.019506	-0.823429	-0.435694	-0.363505
18874	8.027949	2.724499	-3.852248	0.053071	0.498021	-0.457240	-0.324845	-0.153319	0.933257	-0.462760	0.886348	-0.015463	-0.824820	-0.436898	-0.358876
18875	7.475682	3.010678	-3.668797	-0.025543	0.433758	-0.397243	-0.319994	-0.154766	0.934693	-0.463493	0.886020	-0.011971	-0.826304	-0.437054	-0.355254
18876	7.573372	3.180502	-3.595318	-0.121468	0.325104	-0.332570	-0.315804	-0.156268	0.935868	-0.463512	0.886050	-0.008460	-0.827904	-0.436458	-0.352251
18877	7.603365	3.205511	-3.647355	-0.231794	0.245921	-0.255236	-0.313135	-0.157322	0.936588	-0.462081	0.886821	-0.005528	-0.829715	-0.434510	-0.350390
18878	7.310687	3.180034	-3.683876	-0.329683	0.164416	-0.181439	-0.310974	-0.158196	0.937160	-0.459875	0.887980	-0.002704	-0.831752	-0.431817	-0.348889
18879	7.287598	3.176855	-3.820752	-0.429050	0.078177	-0.119114	-0.310308	-0.158820	0.937276	-0.456381	0.889784	-0.000324	-0.833922	-0.427855	-0.348589
18880	7.394595	3.070450	-3.923474	-0.521319	0.009804	-0.058196	-0.310003	-0.159272	0.937300	-0.452174	0.891927	0.002010	-0.836323	-0.423200	-0.348519
18881	7.508460	2.990977	-3.982372	-0.607665	-0.056735	-0.009055	-0.310952	-0.159528	0.936942	-0.446841	0.894604	0.004023	-0.838834	-0.417413	-0.349463
18882	7.650906	2.910376	-4.123492	-0.693610	-0.104150	0.043726	-0.312063	-0.159543	0.936570	-0.440842	0.897564	0.006011	-0.841591	-0.411004	-0.350430
18883	7.949975	2.790993	-4.208345	-0.777595	-0.140431	0.090276	-0.314141	-0.159273	0.935921	-0.433748	0.901001	0.007743	-0.844499	-0.403521	-0.352126
18884	8.261574	2.625606	-4.260703	-0.859231	-0.152462	0.133547	-0.316048	-0.158652	0.935384	-0.426022	0.904663	0.009496	-0.847714	-0.395493	-0.353506
18885	8.574690	2.402206	-4.359784	-0.928826	-0.137472	0.175507	-0.318442	-0.157596	0.934750	-0.417332	0.908687	0.011029	-0.851133	-0.386590	-0.355134
18886	8.858539	2.183029	-4.321129	-0.994296	-0.099630	0.211387	-0.320207	-0.156026	0.934411	-0.408140	0.912833	0.012560	-0.854920	-0.377349	-0.355976
18887	9.071813	1.959745	-4.293606	-1.046707	-0.045295	0.236603	-0.322025	-0.154051	0.934114	-0.398178	0.917202	0.013995	-0.858927	-0.367436	-0.356701
18888	9.240761	1.799134	-4.189351	-1.088319	0.026653	0.257513	-0.322850	-0.151560	0.934236	-0.387939	0.921556	0.015440	-0.863291	-0.357442	-0.356321
18889	9.176525	1.700889	-4.059485	-1.127548	0.098928	0.268503	-0.323486	-0.148770	0.934465	-0.377086	0.926024	0.016889	-0.867849	-0.346910	-0.355655
18890	9.100649	1.652329	-3.898063	-1.155969	0.152986	0.270549	-0.323203	-0.145709	0.935045	-0.366115	0.930387	0.018434	-0.872640	-0.336376	-0.354050
18891	9.175639	1.585832	-3.739075	-1.174431	0.204783	0.271545	-0.322845	-0.142553	0.935655	-0.354743	0.934750	0.020012	-0.877456	-0.325456	-0.352349
18892	9.067118	1.612719	-3.562855	-1.182872	0.254619	0.269009	-0.321586	-0.139190	0.936594	-0.343430	0.938929	0.021618	-0.882405	-0.314702	-0.349749
18893	8.957842	1.707257	-3.422325	-1.195598	0.300240	0.271541	-0.320289	-0.135774	0.937539	-0.331769	0.943075	0.023234	-0.887324	-0.303605	-0.347102
18894	8.765633	1.778836	-3.220038	-1.203901	0.328537	0.277526	-0.318313	-0.132144	0.938730	-0.320132	0.947049	0.024761	-0.892296	-0.292636	-0.343762
18895	8.752734	1.890637	-3.048394	-1.220169	0.333629	0.289015	-0.316666	-0.128525	0.939789	-0.308096	0.950993	0.026243	-0.897106	-0.281235	-0.340745
18896	8.631737	1.973887	-2.918666	-1.241133	0.335847	0.301496	-0.314599	-0.124698	0.940998	-0.295942	0.954807	0.027587	-0.901912	-0.269802	-0.337285
18897	8.376818	2.077662	-2.822094	-1.266767	0.330674	0.320806	-0.312952	-0.120853	0.942048	-0.283290	0.958600	0.028867	-0.906536	-0.257839	-0.334233
18898	8.230484	2.051812	-2.838757	-1.288638	0.293385	0.333645	-0.311253	-0.116880	0.943112	-0.270499	0.962253	0.029981	-0.911017	-0.245779	-0.331120
18899	8.181255	2.102189	-2.839217	-1.310380	0.262956	0.342923	-0.310157	-0.113058	0.943939	-0.257287	0.965833	0.031142	-0.915208	-0.233204	-0.328648
18900	8.223782	2.069650	-2.864528	-1.325560	0.204570	0.347584	-0.309195	-0.109201	0.944708	-0.244014	0.969238	0.032172	-0.919160	-0.220574	-0.326330
18901	8.413853	2.018526	-2.899074	-1.342217	0.147910	0.352383	-0.309056	-0.105592	0.945164	-0.230391	0.972528	0.033314	-0.922716	-0.207461	-0.324893
18902	8.463867	2.008483	-2.941692	-1.357136	0.099207	0.362378	-0.308991	-0.101831	0.945598	-0.216686	0.975640	0.034260	-0.926051	-0.194312	-0.323530
18903	8.534494	1.945774	-2.943595	-1.366951	0.053915	0.368345	-0.309640	-0.098274	0.945762	-0.202704	0.978603	0.035322	-0.928996	-0.180773	-0.322935
18904	8.653755	1.932995	-2.981120	-1.370177	0.015095	0.373035	-0.310272	-0.094560	0.945933	-0.188760	0.981356	0.036187	-0.931719	-0.167327	-0.322336
18905	8.850789	1.881996	-3.013331	-1.378883	-0.019180	0.386048	-0.311517	-0.090953	0.945878	-0.174539	0.983950	0.037131	-0.934074	-0.153526	-0.322392
18906	9.057852	1.850692	-3.055141	-1.382272	-0.034276	0.401761	-0.312552	-0.087012	0.945907	-0.160318	0.986343	0.037759	-0.936274	-0.139844	-0.322233
18907	9.115157	1.796452	-3.152189	-1.380122	-0.038957	0.426652	-0.313926	-0.083018	0.945811	-0.145896	0.988557	0.038345	-0.938171	-0.125952	-0.322445
18908	9.199129	1.717255	-3.183115	-1.380428	-0.037780	0.453192	-0.314950	-0.078544	0.945853	-0.131467	0.990573	0.038482	-0.939959	-0.112228	-0.322307
18909	9.303987	1.700997	-3.251856	-1.375059	-0.025485	0.477779	-0.316130	-0.074010	0.945825	-0.116878	0.992396	0.038590	-0.941489	-0.098346	-0.322376
18910	9.179564	1.670735	-3.295879	-1.378735	-0.010291	0.513034	-0.316830	-0.068889	0.945977	-0.102222	0.994030	0.038152	-0.942958	-0.084612	-0.321981
18911	9.090907	1.615926	-3.363348	-1.376448	0.005185	0.549417	-0.317642	-0.063605	0.946075	-0.087349	0.995468	0.037598	-0.944179	-0.070696	-0.321758
18912	8.979820	1.519261	-3.421886	-1.375647	0.033494	0.574811	-0.317825	-0.057822	0.946385	-0.072484	0.996700	0.036554	-0.945375	-0.056980	-0.320967
18913	8.994860	1.504397	-3.430570	-1.368655	0.045475	0.601685	-0.318121	-0.051992	0.946623	-0.057484	0.997716	0.035480	-0.946306	-0.043129	-0.320383
18914	9.068764	1.394831	-3.460348	-1.372659	0.064375	0.621244	-0.317862	-0.045731	0.947033	-0.042471	0.998520	0.033962	-0.947185	-0.029426	-0.319334
18915	9.048276	1.338454	-3.482176	-1.366169	0.075327	0.644258	-0.317706	-0.039478	0.947367	-0.027339	0.999099	0.032465	-0.947795	-0.015586	-0.318499
18916	9.231371	1.339310	-3.471118	-1.365863	0.087085	0.665089	-0.317051	-0.032787	0.947841	-0.012237	0.999460	0.030479	-0.948329	-0.001935	-0.317282
18917	9.496891	1.207968	-3.419346	-1.362991	0.113792	0.687838	-0.316334	-0.026121	0.948288	0.003010	0.999588	0.028539	-0.948643	0.011882	-0.316125
18918	9.811412	1.049682	-3.285646	-1.360680	0.148398	0.718008	-0.314889	-0.018934	0.948940	0.018229	0.999496	0.025992	-0.948954	0.025483	-0.314385
18919	9.940933	0.876404	-3.158167	-1.351220	0.196806	0.744070	-0.313154	-0.011770	0.949630	0.033529	0.999163	0.023441	-0.949110	0.039181	-0.312497
18920	10.057045	0.701007	-3.050604	-1.341190	0.237457	0.770794	-0.310621	-0.004141	0.950525	0.048706	0.998607	0.020267	-0.949285	0.052592	-0.309987
18921	10.142585	0.536285	-2.950091	-1.320432	0.270892	0.788546	-0.307925	0.003360	0.951405	0.063819	0.997814	0.017131	-0.949268	0.065993	-0.307466
18922	9.997019	0.536122	-2.925115	-1.292630	0.304801	0.786281	-0.304510	0.011020	0.952446	0.078540	0.996819	0.013577	-0.949266	0.078939	-0.304406
18923	9.860888	0.501122	-2.944737	-1.254062	0.321721	0.778949	-0.301099	0.018295	0.953417	0.092939	0.995619	0.010246	-0.949053	0.091695	-0.301480
18924	9.829288	0.403935	-2.870370	-1.201215	0.341366	0.762839	-0.297136	0.025592	0.954492	0.106663	0.994274	0.006546	-0.948859	0.103754	-0.298164
18925	9.942425	0.354581	-2.833477	-1.137057	0.353257	0.754781	-0.293234	0.032492	0.955488	0.119815	0.992792	0.003010	-0.948503	0.115365	-0.295013
18926	10.146900	0.387054	-2.754761	-1.065450	0.382431	0.761872	-0.288684	0.039629	0.956604	0.132179	0.991225	-0.001174	-0.948256	0.126104	-0.291389
18927	10.164784	0.512111	-2.761894	-0.994467	0.411971	0.782842	-0.283995	0.046630	0.957691	0.143985	0.989565	-0.005484	-0.947953	0.136336	-0.287745
18928	10.217439	0.576795	-2.596307	-0.941277	0.427556	0.829718	-0.278738	0.054271	0.958833	0.155284	0.987811	-0.010769	-0.947730	0.145890	-0.283768
18929	10.428080	0.765720	-2.606117	-0.895760	0.432751	0.887535	-0.273500	0.062162	0.959861	0.166357	0.985928	-0.016449	-0.947377	0.155181	-0.279993
18930	10.141908	0.888174	-2.688230	-0.877500	0.448445	0.982066	-0.267602	0.071160	0.960898	0.177369	0.983865	-0.023465	-0.947064	0.164154	-0.275905
18931	9.824638	0.916536	-2.823220	-0.853482	0.429172	1.070395	-0.261865	0.080732	0.961722	0.188417	0.981597	-0.031097	-0.946534	0.173062	-0.272257
18932	9.895449	0.923676	-2.877521	-0.833486	0.393848	1.145985	-0.255953	0.091311	0.962367	0.199313	0.979124	-0.039891	-0.945919	0.181602	-0.268809
18933	10.219274	0.860526	-2.677761	-0.821770	0.326122	1.210160	-0.250674	0.102306	0.962651	0.210284	0.976411	-0.049011	-0.944957	0.190145	-0.266274
18934	11.304638	0.760264	-2.435835	-0.833635	0.231786	1.272712	-0.245774	0.114306	0.962564	0.221358	0.973402	-0.059073	-0.943714	0.198553	-0.264540
18935	11.660294	0.606505	-2.711652	-0.874284	0.205474	1.360799	-0.241021	0.126871	0.962192	0.233051	0.969976	-0.069520	-0.942123	0.207484	-0.263352
18936	10.423397	0.394361	-3.430795	-0.886764	0.242632	1.417531	-0.235386	0.140122	0.961748	0.244817	0.966192	-0.080851	-0.940563	0.216421	-0.261732
18937	8.873409	0.201424	-4.105541	-0.867003	0.288470	1.420925	-0.229387	0.152938	0.961245	0.256407	0.962190	-0.091900	-0.938955	0.225389	-0.259929
18938	7.976630	0.164172	-4.492582	-0.819936	0.345477	1.389730	-0.222543	0.165531	0.960768	0.267282	0.958081	-0.103157	-0.937569	0.233839	-0.257457
18939	7.424231	0.248830	-4.467257	-0.798426	0.394009	1.383739	-0.215367	0.177575	0.960252	0.277951	0.953802	-0.114042	-0.936141	0.242342	-0.254774
18940	7.624400	0.258593	-4.103403	-0.816322	0.394799	1.404268	-0.207731	0.190006	0.959555	0.288599	0.949193	-0.125476	-0.934643	0.250861	-0.252012
18941	8.194631	0.092375	-3.699320	-0.884728	0.367680	1.449407	-0.200336	0.202542	0.958562	0.299996	0.944083	-0.136785	-0.932667	0.260162	-0.249896
18942	8.538093	-0.209668	-3.551825	-0.974407	0.321782	1.473190	-0.192866	0.215599	0.957246	0.312010	0.938403	-0.148492	-0.930297	0.270031	-0.248255
18943	8.670651	-0.766761	-3.613060	-1.045289	0.271984	1.447243	-0.186044	0.228142	0.955688	0.324654	0.932311	-0.159361	-0.927355	0.280620	-0.247518
18944	8.567044	-1.120942	-3.837873	-1.087342	0.202658	1.365858	-0.179682	0.240298	0.953924	0.337259	0.925984	-0.169733	-0.924105	0.291221	-0.247426
18945	8.562414	-1.417133	-4.122955	-1.102321	0.136611	1.249561	-0.174446	0.251184	0.952090	0.349846	0.919640	-0.178523	-0.920422	0.301942	-0.248303
18946	8.626839	-1.603320	-4.382550	-1.096744	0.078383	1.102182	-0.169839	0.261090	0.950256	0.361858	0.913429	-0.186296	-0.916632	0.312217	-0.249613
18947	8.858960	-1.575278	-4.570348	-1.076323	0.026861	0.946186	-0.166439	0.269390	0.948539	0.373517	0.907495	-0.192193	-0.912569	0.322307	-0.251665
18948	9.301570	-1.394921	-4.637867	-1.068156	0.006642	0.801058	-0.163377	0.276660	0.946978	0.384604	0.901792	-0.197105	-0.908508	0.332009	-0.253737
18949	9.727726	-1.213861	-4.599991	-1.066464	0.023412	0.667656	-0.160896	0.282365	0.945718	0.395594	0.896315	-0.200312	-0.904223	0.341891	-0.255915
18950	10.060990	-1.035234	-4.523530	-1.067883	0.062687	0.538918	-0.158204	0.287009	0.944774	0.406127	0.891056	-0.202684	-0.900018	0.351633	-0.257531
18951	10.312724	-0.827623	-4.419574	-1.073411	0.115949	0.416397	-0.155797	0.290081	0.944235	0.416671	0.886001	-0.203441	-0.895607	0.361740	-0.258904
18952	10.480179	-0.548532	-4.282851	-1.086152	0.178281	0.311785	-0.152923	0.292228	0.944043	0.426896	0.881086	-0.203588	-0.891277	0.371875	-0.259489
18953	10.496408	-0.235868	-4.217598	-1.110258	0.246649	0.225046	-0.150116	0.293059	0.944236	0.437369	0.876207	-0.202411	-0.886665	0.382594	-0.259707
18954	10.376821	0.260595	-4.131896	-1.147796	0.324182	0.161186	-0.146569	0.293256	0.944732	0.447798	0.871256	-0.200975	-0.882040	0.393592	-0.259019
18955	10.274629	0.731533	-3.993175	-1.218159	0.393865	0.126655	-0.142903	0.292559	0.945509	0.458963	0.865978	-0.198583	-0.876887	0.405576	-0.258024
18956	10.225817	1.201694	-3.789309	-1.313381	0.464226	0.128487	-0.138281	0.291803	0.946430	0.470664	0.860167	-0.196439	-0.871409	0.418287	-0.256286
18957	10.115705	1.512456	-3.586472	-1.438148	0.529082	0.158565	-0.133319	0.290674	0.947489	0.483641	0.853542	-0.193801	-0.865054	0.432407	-0.254375
18958	10.002117	1.600215	-3.333739	-1.577455	0.585368	0.197383	-0.127341	0.289825	0.948570	0.497528	0.846002	-0.191696	-0.858051	0.447529	-0.251926
18959	9.843576	1.560154	-3.214796	-1.705926	0.633680	0.246395	-0.121089	0.288755	0.949715	0.512681	0.837460	-0.189257	-0.849997	0.463984	-0.249447
18960	9.502845	1.380636	-3.023622	-1.828518	0.666377	0.293037	-0.113961	0.288096	0.950796	0.528527	0.827946	-0.187524	-0.841233	0.481151	-0.246620
18961	9.063409	1.211671	-2.863631	-1.934208	0.676672	0.334181	-0.106927	0.287255	0.951867	0.545353	0.817440	-0.185426	-0.831359	0.499276	-0.244062
18962	8.773168	1.069382	-2.813742	-2.027144	0.660185	0.380319	-0.099398	0.287037	0.952749	0.562529	0.806011	-0.184142	-0.820781	0.517645	-0.241582
18963	8.592779	0.793552	-2.740724	-2.123331	0.632900	0.424504	-0.092246	0.286810	0.953536	0.580520	0.793525	-0.182521	-0.809004	0.536710	-0.239698
18964	8.446746	0.547979	-2.738796	-2.209849	0.602005	0.463091	-0.084713	0.287218	0.954112	0.598706	0.780093	-0.181676	-0.796476	0.555843	-0.238043
18965	8.281776	0.204083	-2.712635	-2.278078	0.571610	0.497627	-0.077614	0.287538	0.954619	0.617380	0.765692	-0.180436	-0.782827	0.575358	-0.236948
18966	8.139705	-0.124459	-2.656111	-2.326982	0.529549	0.527284	-0.070231	0.288493	0.954903	0.635857	0.750528	-0.179982	-0.768605	0.594541	-0.236150
18967	8.109320	-0.542071	-2.613604	-2.355498	0.481505	0.554254	-0.063437	0.289404	0.955103	0.654431	0.734599	-0.179122	-0.753456	0.613686	-0.235996
18968	8.120449	-0.879463	-2.490186	-2.364209	0.425626	0.585775	-0.056404	0.291064	0.955039	0.672448	0.718136	-0.179150	-0.737993	0.632109	-0.236231
18969	8.208428	-1.265055	-2.433707	-2.349109	0.368398	0.619819	-0.049938	0.292809	0.954866	0.690196	0.701156	-0.178912	-0.721897	0.650110	-0.237110
18970	8.104706	-1.669573	-2.450564	-2.316691	0.321888	0.658140	-0.043067	0.295305	0.954432	0.707074	0.683925	-0.179703	-0.705827	0.667114	-0.238257
18971	7.948701	-2.054151	-2.436560	-2.244992	0.273838	0.691226	-0.036655	0.297838	0.953912	0.723276	0.666596	-0.180338	-0.689586	0.683332	-0.239853
18972	7.837321	-2.313932	-2.381899	-2.158095	0.232057	0.716328	-0.029861	0.301009	0.953154	0.738258	0.649504	-0.181987	-0.673857	0.698239	-0.241617
18973	7.810616	-2.430472	-2.352503	-2.056968	0.196352	0.741713	-0.023456	0.304105	0.952350	0.752410	0.632626	-0.183479	-0.658278	0.712253	-0.243650
18974	7.796096	-2.484624	-2.306402	-1.968902	0.173096	0.772031	-0.016492	0.307743	0.951327	0.765408	0.616073	-0.186023	-0.643334	0.725085	-0.245709
18975	7.754111	-2.473210	-2.274697	-1.897838	0.152721	0.794734	-0.009806	0.311195	0.950296	0.777823	0.599604	-0.188327	-0.628407	0.737315	-0.247934
18976	7.690992	-2.547470	-2.297780	-1.848182	0.130997	0.805833	-0.002698	0.315050	0.949071	0.789382	0.583307	-0.191388	-0.613896	0.748663	-0.250269
18977	7.629373	-2.644119	-2.314326	-1.795126	0.108331	0.795344	0.003878	0.318557	0.947896	0.800499	0.567114	-0.193864	-0.599322	0.759541	-0.252805
18978	7.556957	-2.779112	-2.298282	-1.754959	0.077635	0.770660	0.010528	0.322336	0.946567	0.810864	0.551183	-0.196714	-0.585140	0.769608	-0.255568
18979	7.542827	-2.840818	-2.324604	-1.707238	0.042802	0.727987	0.016326	0.325721	0.945325	0.820856	0.535466	-0.198677	-0.570902	0.779219	-0.258628
18980	7.613908	-2.924058	-2.375263	-1.666383	-0.002443	0.678262	0.021894	0.329385	0.943942	0.830151	0.520141	-0.200756	-0.557109	0.788010	-0.262051
18981	7.645180	-2.902475	-2.425229	-1.630776	-0.051482	0.619191	0.026406	0.332740	0.942649	0.839183	0.505033	-0.201776	-0.543208	0.796383	-0.265894
18982	7.794474	-2.876484	-2.511651	-1.603419	-0.102215	0.554294	0.030517	0.336382	0.941231	0.847652	0.490302	-0.202709	-0.529675	0.804022	-0.270172
18983	8.003695	-2.920677	-2.693919	-1.580080	-0.139004	0.486005	0.033572	0.339638	0.939957	0.855954	0.475757	-0.202479	-0.515960	0.811358	-0.274742
18984	8.217693	-2.947501	-2.847414	-1.552418	-0.171401	0.421786	0.036312	0.343077	0.938605	0.863737	0.461622	-0.202147	-0.502632	0.818048	-0.279567
18985	8.497674	-2.998013	-3.040611	-1.523903	-0.185556	0.358788	0.038161	0.346031	0.937447	0.871347	0.447728	-0.200736	-0.489182	0.824501	-0.284427
18986	8.699313	-2.951635	-3.158991	-1.492061	-0.192595	0.297750	0.039823	0.349005	0.936274	0.878455	0.434299	-0.199253	-0.476163	0.830410	-0.289290
18987	8.886600	-2.952440	-3.278548	-1.467276	-0.185212	0.253958	0.040864	0.351445	0.935316	0.885416	0.421038	-0.196888	-0.462999	0.836190	-0.293970
18988	8.989134	-2.980022	-3.395140	-1.435527	-0.173333	0.217008	0.041989	0.353867	0.934353	0.891903	0.408181	-0.194671	-0.450273	0.841526	-0.298476
18989	9.064710	-2.967709	-3.568194	-1.404297	-0.151473	0.183957	0.042646	0.355708	0.933624	0.898221	0.395527	-0.191724	-0.437471	0.846776	-0.302637
18990	9.195988	-2.921175	-3.610029	-1.371944	-0.121858	0.165344	0.043600	0.357455	0.932912	0.904087	0.383237	-0.189094	-0.425119	0.851678	-0.306462
18991	9.357877	-2.879440	-3.686552	-1.352529	-0.084481	0.155042	0.044347	0.358598	0.932438	0.909835	0.370979	-0.185944	-0.412594	0.856611	-0.309813
18992	9.349573	-2.897855	-3.755756	-1.324017	-0.032250	0.143645	0.045518	0.359468	0.932047	0.915172	0.359040	-0.183167	-0.400485	0.861320	-0.312632
18993	9.234178	-2.901018	-3.841741	-1.297599	0.008675	0.135973	0.046506	0.359721	0.931900	0.920367	0.347193	-0.179950	-0.388280	0.866059	-0.314929
18994	9.356517	-2.826544	-3.849013	-1.272509	0.028313	0.126315	0.047772	0.359976	0.931738	0.925192	0.335638	-0.177110	-0.376482	0.870497	-0.317013
18995	9.438372	-2.889676	-3.931779	-1.259620	0.067337	0.131054	0.048954	0.359681	0.931790	0.929924	0.324020	-0.173931	-0.364478	0.875009	-0.318614
18996	9.496314	-2.920516	-3.942278	-1.233126	0.099672	0.119937	0.050423	0.359259	0.931875	0.934305	0.312720	-0.171116	-0.352891	0.879283	-0.319889
18997	9.823667	-3.006583	-3.931186	-1.207819	0.136367	0.102050	0.051580	0.358242	0.932203	0.938564	0.301554	-0.167818	-0.341229	0.883588	-0.320678
18998	10.049162	-3.074150	-3.902990	-1.172819	0.188236	0.091842	0.053071	0.356917	0.932627	0.942468	0.290786	-0.164915	-0.330056	0.887724	-0.320951
18999	10.070887	-3.128599	-3.840176	-1.135773	0.251250	0.079081	0.054373	0.354789	0.933364	0.946220	0.280246	-0.161648	-0.318922	0.891957	-0.320470
19000	10.036930	-3.115916	-3.786280	-1.102013	0.310999	0.072187	0.056029	0.352279	0.934217	0.949651	0.270085	-0.158799	-0.308260	0.896077	-0.319409
19001	10.026386	-3.052049	-3.680334	-1.065575	0.361077	0.063587	0.057480	0.349094	0.935323	0.952941	0.260142	-0.155656	-0.297655	0.900255	-0.317713
19002	9.963329	-2.994754	-3.578014	-1.051179	0.404104	0.069011	0.059318	0.345696	0.936470	0.955990	0.250364	-0.152976	-0.287341	0.904330	-0.315631
19003	9.977797	-2.988770	-3.565753	-1.033369	0.445558	0.069428	0.061004	0.341725	0.937818	0.958952	0.240612	-0.150054	-0.276928	0.908476	-0.313020
19004	9.950294	-2.934451	-3.458953	-1.028325	0.475362	0.075534	0.063021	0.337649	0.939160	0.961714	0.230939	-0.147561	-0.266712	0.912502	-0.310167
19005	9.800623	-2.963094	-3.384059	-1.028916	0.500165	0.075056	0.064827	0.333147	0.940643	0.964436	0.221135	-0.144786	-0.256245	0.916576	-0.306964
19006	9.843969	-2.957646	-3.280996	-1.029048	0.508911	0.069991	0.066781	0.328698	0.942071	0.966985	0.211397	-0.142306	-0.245926	0.920472	-0.303729
19007	9.918514	-2.976284	-3.215102	-1.031578	0.517679	0.062525	0.068421	0.323961	0.943593	0.969496	0.201540	-0.139493	-0.235362	0.924354	-0.300290
19008	9.771040	-3.055271	-3.141997	-1.022884	0.530202	0.041296	0.070044	0.319206	0.945093	0.971833	0.191878	-0.136833	-0.225021	0.928057	-0.296775
19009	9.900049	-3.021950	-3.029001	-1.009421	0.517192	0.008450	0.071065	0.314327	0.946651	0.974108	0.182334	-0.133668	-0.214622	0.931640	-0.293232
19010	10.224900	-2.908104	-2.811032	-1.005773	0.500503	-0.010203	0.072017	0.309713	0.948099	0.976233	0.172923	-0.130642	-0.204410	0.934973	-0.289899
19011	10.587318	-2.845020	-2.561437	-1.015387	0.463838	-0.018030	0.072580	0.305256	0.949500	0.978322	0.163344	-0.127297	-0.193954	0.938156	-0.286783
19012	10.941858	-2.726336	-2.533875	-1.038638	0.434625	-0.011290	0.073294	0.301230	0.950731	0.980299	0.153563	-0.124228	-0.183418	0.941105	-0.284040
19013	10.739531	-2.728885	-2.603874	-1.055141	0.415691	-0.014891	0.073716	0.297206	0.951963	0.982234	0.143545	-0.120875	-0.172574	0.943961	-0.281345
19014	10.627680	-2.633520	-2.559039	-1.058550	0.368780	-0.044283	0.073903	0.293735	0.953026	0.984044	0.133614	-0.117490	-0.161848	0.946503	-0.279174
19015	10.688825	-2.485425	-2.717762	-1.048534	0.335431	-0.079719	0.073483	0.290370	0.954089	0.985783	0.123799	-0.113602	-0.151102	0.948873	-0.277144
19016	10.199857	-2.136581	-2.905917	-1.015320	0.311550	-0.133900	0.072624	0.287327	0.955075	0.987369	0.114484	-0.109521	-0.140810	0.950966	-0.275383
19017	9.797995	-1.731444	-3.042686	-0.967324	0.255707	-0.195952	0.070887	0.284595	0.956023	0.988857	0.105730	-0.104796	-0.130905	0.952799	-0.273929
19018	9.654762	-1.284806	-3.139853	-0.919638	0.209403	-0.252878	0.068657	0.282418	0.956831	0.990201	0.097621	-0.099865	-0.121611	0.954311	-0.272948
19019	9.483822	-0.916414	-3.171890	-0.864351	0.164463	-0.303791	0.065697	0.280485	0.957607	0.991446	0.090115	-0.094414	-0.112776	0.955619	-0.272166
19020	9.253830	-0.519420	-3.246418	-0.808405	0.146282	-0.339593	0.062497	0.278869	0.958293	0.992547	0.083278	-0.088965	-0.104614	0.956711	-0.271586
19021	8.762984	-0.120004	-3.282148	-0.738559	0.142474	-0.369053	0.058834	0.277140	0.959027	0.993541	0.077124	-0.083239	-0.097033	0.957729	-0.270812
19022	8.629231	0.448933	-3.121764	-0.670993	0.118797	-0.396112	0.055018	0.275784	0.959644	0.994399	0.071733	-0.077626	-0.090246	0.958539	-0.270292
19023	9.044219	0.931739	-2.776108	-0.628892	0.098958	-0.394936	0.051030	0.274501	0.960232	0.995178	0.066671	-0.071947	-0.083769	0.959273	-0.269775
19024	9.242258	1.407892	-2.517612	-0.622375	0.087113	-0.360775	0.047520	0.273511	0.960694	0.995861	0.061630	-0.066806	-0.077480	0.959893	-0.269450
19025	9.036625	1.799014	-2.434160	-0.629928	0.080849	-0.320006	0.044236	0.272489	0.961142	0.996496	0.056328	-0.061832	-0.070988	0.960509	-0.269042
19026	8.864118	2.028706	-2.287954	-0.643930	0.050515	-0.287375	0.041417	0.271927	0.961426	0.997058	0.050866	-0.057339	-0.064496	0.960973	-0.269020
19027	8.848097	2.205760	-2.212224	-0.673177	0.016889	-0.257741	0.038686	0.271587	0.961636	0.997591	0.044957	-0.052829	-0.057580	0.961363	-0.269194
19028	8.518264	2.341574	-2.229504	-0.697641	-0.024313	-0.218990	0.036500	0.271807	0.961659	0.998053	0.038787	-0.048844	-0.050576	0.961570	-0.269862
19029	8.253495	2.368749	-2.184864	-0.723809	-0.094597	-0.200681	0.034265	0.272594	0.961519	0.998480	0.032221	-0.044717	-0.043171	0.961589	-0.271076
19030	8.218988	2.307625	-2.229846	-0.750686	-0.180907	-0.171599	0.032494	0.274362	0.961077	0.998835	0.025415	-0.041025	-0.035682	0.961291	-0.273217
19031	7.988962	2.241421	-2.358102	-0.770700	-0.267030	-0.143488	0.030773	0.276850	0.960420	0.999139	0.018239	-0.037271	-0.027836	0.960740	-0.276050
19032	7.929201	2.089405	-2.364608	-0.792684	-0.370804	-0.118626	0.029514	0.280471	0.959409	0.999365	0.010900	-0.033929	-0.019974	0.959800	-0.279972
19033	8.172791	2.149217	-2.411187	-0.817301	-0.469266	-0.082985	0.028396	0.284925	0.958129	0.999528	0.003119	-0.030550	-0.011693	0.958545	-0.284702
19034	8.339659	2.369269	-2.546917	-0.865871	-0.539135	-0.015190	0.028220	0.290167	0.956560	0.999597	-0.005188	-0.027915	-0.003137	0.956962	-0.290197
19035	8.742477	2.521817	-2.631154	-0.940073	-0.581554	0.067908	0.028683	0.295684	0.954855	0.999568	-0.014562	-0.025517	0.006359	0.955175	-0.295974
19036	9.109647	2.502909	-2.771950	-1.028236	-0.569575	0.161660	0.030381	0.301165	0.953088	0.999402	-0.024914	-0.023985	0.016522	0.953246	-0.301742
19037	9.172380	2.251020	-2.923672	-1.107444	-0.527423	0.240395	0.032664	0.306082	0.951444	0.999082	-0.036388	-0.022593	0.027706	0.951309	-0.306990
19038	9.222623	2.020023	-2.978670	-1.162179	-0.474517	0.302211	0.035860	0.310542	0.949883	0.998587	-0.048423	-0.021868	0.039206	0.949326	-0.311840
19039	9.262536	1.732953	-3.029138	-1.200727	-0.410915	0.347384	0.039270	0.314221	0.948537	0.997909	-0.061103	-0.021073	0.051337	0.947381	-0.315964
19040	9.271803	1.467269	-2.998216	-1.231219	-0.359153	0.384179	0.043329	0.317439	0.947288	0.997039	-0.074027	-0.020798	0.063523	0.945385	-0.319706
19041	9.247004	1.194936	-2.966220	-1.237729	-0.310036	0.404916	0.047333	0.320016	0.946229	0.995982	-0.087220	-0.020323	0.076026	0.943389	-0.322858
19042	9.070522	1.021038	-2.959896	-1.226633	-0.270050	0.399515	0.051554	0.322264	0.945245	0.994772	-0.100121	-0.020120	0.088155	0.941340	-0.325741
19043	8.839607	0.813820	-3.014613	-1.199635	-0.247986	0.390276	0.055418	0.324158	0.944378	0.993416	-0.112879	-0.019550	0.100263	0.939244	-0.328280
19044	8.669835	0.708140	-3.045014	-1.158066	-0.242104	0.366936	0.059341	0.326071	0.943481	0.991972	-0.124996	-0.019192	0.111673	0.937045	-0.330871
19045	8.756347	0.701702	-3.017383	-1.119737	-0.250252	0.356250	0.062918	0.327927	0.942606	0.990418	-0.136858	-0.018498	0.122937	0.934737	-0.333396
19046	8.931226	0.728250	-3.136973	-1.084303	-0.245591	0.355163	0.066774	0.329791	0.941689	0.988789	-0.148208	-0.018210	0.133560	0.932348	-0.335990
19047	8.646798	0.741426	-3.149733	-1.053563	-0.253971	0.361367	0.070451	0.331583	0.940792	0.987050	-0.159432	-0.017723	0.144115	0.929857	-0.338521
19048	8.681435	0.687540	-3.154861	-1.020022	-0.277481	0.367089	0.074512	0.333632	0.939754	0.985253	-0.170183	-0.017701	0.154025	0.927215	-0.341393
19049	8.776945	0.717567	-3.172635	-0.998740	-0.288472	0.385811	0.078524	0.335611	0.938722	0.983337	-0.180941	-0.017567	0.163958	0.924460	-0.344227
19050	8.883545	0.628247	-3.167955	-0.977189	-0.313914	0.401531	0.083028	0.337838	0.937535	0.981354	-0.191372	-0.017948	0.173354	0.921543	-0.347428
19051	8.956207	0.627121	-3.255512	-0.957506	-0.321367	0.425327	0.087528	0.339946	0.936363	0.979248	-0.201843	-0.018257	0.182792	0.918529	-0.350558
19052	9.071412	0.576542	-3.295433	-0.944098	-0.328033	0.438822	0.092465	0.342123	0.935094	0.977072	-0.212056	-0.019031	0.191781	0.915415	-0.353887
19053	9.224547	0.511649	-3.309595	-0.927813	-0.321572	0.451273	0.097262	0.344071	0.933893	0.974780	-0.222304	-0.019617	0.200858	0.912248	-0.357015
19054	9.303623	0.542159	-3.306439	-0.912510	-0.306907	0.463621	0.102438	0.345889	0.932667	0.972431	-0.232272	-0.020665	0.209485	0.909071	-0.360147
19055	9.403302	0.519810	-3.309627	-0.904562	-0.288170	0.474431	0.107425	0.347368	0.931555	0.969952	-0.242346	-0.021484	0.218295	0.905872	-0.362965
19056	9.454385	0.549551	-3.257755	-0.895135	-0.261445	0.492685	0.112813	0.348591	0.930461	0.967403	-0.252214	-0.022802	0.226726	0.902703	-0.365681
19057	9.429612	0.538376	-3.290003	-0.897557	-0.241954	0.510244	0.118067	0.349448	0.929487	0.964689	-0.262302	-0.023924	0.235447	0.899491	-0.368078
19058	9.360551	0.499743	-3.268593	-0.899924	-0.214676	0.529826	0.123721	0.350036	0.928530	0.961876	-0.272295	-0.025514	0.243903	0.896287	-0.370380
19059	9.169318	0.419702	-3.269458	-0.896265	-0.195547	0.539635	0.129155	0.350278	0.927698	0.958914	-0.282422	-0.026865	0.252593	0.893053	-0.372363
19060	9.110300	0.341023	-3.327141	-0.893624	-0.180214	0.551573	0.134936	0.350376	0.926838	0.955874	-0.292380	-0.028634	0.260956	0.889804	-0.374368
19061	9.009758	0.218902	-3.303974	-0.881536	-0.171290	0.558534	0.140489	0.350225	0.926070	0.952709	-0.302384	-0.030173	0.269461	0.886514	-0.376144
19062	8.919402	0.122424	-3.328165	-0.871883	-0.159701	0.568735	0.146373	0.349967	0.925256	0.949489	-0.312149	-0.032141	0.277569	0.883225	-0.377980
19063	8.920027	0.002405	-3.318969	-0.858785	-0.155040	0.571687	0.152000	0.349509	0.924521	0.946156	-0.321935	-0.033852	0.285805	0.879887	-0.379624
19064	8.977537	-0.042664	-3.252585	-0.843917	-0.139888	0.578042	0.157905	0.348925	0.923752	0.942796	-0.331424	-0.035973	0.293602	0.876590	-0.381299
19065	8.961675	-0.094680	-3.218911	-0.833978	-0.124292	0.584571	0.163551	0.348034	0.923105	0.939311	-0.340972	-0.037867	0.301574	0.873276	-0.382678
19066	8.928053	-0.198701	-3.193250	-0.821851	-0.105974	0.585951	0.169410	0.347008	0.922435	0.935804	-0.350230	-0.040113	0.309145	0.870014	-0.384064
19067	8.926787	-0.323980	-3.184566	-0.809102	-0.085605	0.591526	0.174981	0.345637	0.921909	0.932187	-0.359516	-0.042144	0.316874	0.866766	-0.385107
19068	8.796067	-0.463166	-3.230375	-0.784384	-0.073346	0.583880	0.180691	0.344222	0.921337	0.928612	-0.368374	-0.044489	0.324083	0.863604	-0.386211
19069	8.717201	-0.549940	-3.271515	-0.756874	-0.071441	0.569234	0.185983	0.342698	0.920852	0.925021	-0.377061	-0.046501	0.331281	0.860455	-0.387130
19070	8.721162	-0.685464	-3.337103	-0.721242	-0.073078	0.544523	0.191300	0.341326	0.920272	0.921557	-0.385176	-0.048706	0.337842	0.857401	-0.388236
19071	8.731763	-0.738298	-3.350239	-0.679053	-0.079274	0.513915	0.196085	0.339985	0.919761	0.918176	-0.392941	-0.050498	0.344243	0.854405	-0.389216
19072	8.810399	-0.791223	-3.373099	-0.632689	-0.085529	0.486298	0.200884	0.338862	0.919140	0.914991	-0.400046	-0.052491	0.349911	0.851549	-0.390419
19073	8.968269	-0.745094	-3.336412	-0.583807	-0.086095	0.454338	0.205131	0.337739	0.918615	0.911939	-0.406744	-0.054096	0.355371	0.848818	-0.391434
19074	9.159740	-0.760935	-3.303341	-0.537789	-0.084079	0.437291	0.209460	0.336735	0.918006	0.909083	-0.412835	-0.055991	0.360131	0.846272	-0.392593
19075	9.317535	-0.638476	-3.292579	-0.493637	-0.071828	0.425973	0.213384	0.335547	0.917538	0.906323	-0.418631	-0.057681	0.364755	0.843893	-0.393443
19076	9.438362	-0.596702	-3.289184	-0.456825	-0.056064	0.423331	0.217468	0.334311	0.917030	0.903709	-0.423957	-0.059752	0.368806	0.841722	-0.394317
19077	9.610408	-0.588889	-3.290923	-0.426927	-0.037943	0.427508	0.221267	0.332779	0.916678	0.901117	-0.429163	-0.061713	0.372867	0.839689	-0.394832
19078	9.804439	-0.575718	-3.264887	-0.402063	-0.018840	0.442165	0.225364	0.331104	0.916286	0.898596	-0.434060	-0.064164	0.376479	0.837832	-0.395351
19079	9.848584	-0.618246	-3.303119	-0.386667	0.002125	0.455869	0.229248	0.329066	0.916057	0.896025	-0.438989	-0.066542	0.380242	0.836065	-0.395489
19080	9.928415	-0.597194	-3.229036	-0.359445	0.007862	0.462235	0.233403	0.327036	0.915735	0.893556	-0.443565	-0.069340	0.383511	0.834444	-0.395755
19081	10.173632	-0.626975	-3.206137	-0.345512	0.014855	0.483154	0.237459	0.324724	0.915515	0.891016	-0.448205	-0.072130	0.386916	0.832866	-0.395765
19082	10.148546	-0.627156	-3.130887	-0.324552	0.019214	0.497216	0.241858	0.322401	0.915185	0.888536	-0.452572	-0.075383	0.389883	0.831406	-0.395923
19083	10.195061	-0.614227	-3.049816	-0.323235	0.020153	0.511960	0.246122	0.319867	0.914937	0.885950	-0.457084	-0.078526	0.393085	0.829915	-0.395885
19084	10.378272	-0.612962	-2.987308	-0.321530	0.014377	0.531629	0.250819	0.317382	0.914527	0.883332	-0.461502	-0.082101	0.395998	0.828423	-0.396107
19085	10.393496	-0.671584	-2.976330	-0.333833	0.020963	0.558853	0.255464	0.314573	0.914211	0.880519	-0.466212	-0.085629	0.399279	0.826856	-0.396088
19086	10.204161	-0.779097	-2.898534	-0.338944	0.015067	0.577912	0.260534	0.311817	0.913724	0.877641	-0.470879	-0.089554	0.402329	0.825253	-0.396343
19087	10.271685	-0.877314	-2.856218	-0.345362	-0.006047	0.591782	0.265541	0.309017	0.913234	0.874619	-0.475742	-0.093333	0.405622	0.823515	-0.396602
19088	10.276503	-0.978818	-2.879582	-0.351304	-0.021122	0.602596	0.270940	0.306386	0.912535	0.871542	-0.480544	-0.097425	0.408663	0.821709	-0.397227
19089	9.995929	-1.112898	-2.912738	-0.350805	-0.037564	0.613564	0.276228	0.303676	0.911855	0.868355	-0.485471	-0.101374	0.411894	0.819816	-0.397800
19090	9.880623	-1.235430	-2.884403	-0.350196	-0.064006	0.617985	0.281901	0.301262	0.910919	0.865153	-0.490265	-0.105596	0.414780	0.817852	-0.398844
19091	10.057567	-1.463234	-2.806767	-0.345734	-0.099602	0.610532	0.287384	0.299007	0.909948	0.861908	-0.495095	-0.109525	0.417761	0.815767	-0.399999
19092	10.031344	-1.633641	-2.830707	-0.333064	-0.122578	0.611723	0.293213	0.297040	0.908732	0.858706	-0.499688	-0.113737	0.420298	0.813682	-0.401585
19093	9.696260	-1.833587	-2.890538	-0.318377	-0.143320	0.598801	0.298747	0.295132	0.907550	0.855525	-0.504217	-0.117652	0.422879	0.811580	-0.403126
19094	9.159090	-1.964896	-3.048311	-0.296412	-0.165545	0.574134	0.304405	0.293643	0.906152	0.852506	-0.508367	-0.121644	0.424937	0.809529	-0.405082
19095	8.597677	-1.983270	-3.208378	-0.274248	-0.192219	0.541127	0.309630	0.292362	0.904795	0.849612	-0.512333	-0.125198	0.426952	0.807490	-0.407028
19096	8.135809	-1.983367	-3.410534	-0.253339	-0.239511	0.502715	0.314972	0.291786	0.903135	0.846927	-0.515901	-0.128691	0.428378	0.805424	-0.409616
19097	7.654993	-1.962981	-3.738766	-0.241681	-0.281307	0.464443	0.319915	0.291569	0.901467	0.844354	-0.519356	-0.131667	0.429792	0.803279	-0.412337
19098	6.980713	-1.938878	-4.155579	-0.238704	-0.340524	0.438246	0.325128	0.292094	0.899429	0.841881	-0.522606	-0.134606	0.430730	0.800977	-0.415822
19099	6.550237	-1.947439	-4.527135	-0.228752	-0.419467	0.392592	0.330055	0.293317	0.897234	0.839549	-0.525735	-0.136967	0.431533	0.798479	-0.419776
19100	6.428259	-1.934175	-4.831102	-0.218692	-0.497832	0.355851	0.335241	0.295486	0.894596	0.837389	-0.528582	-0.139212	0.431732	0.795794	-0.424640
19101	6.543933	-1.933994	-5.048814	-0.214618	-0.560121	0.317030	0.340144	0.298188	0.891844	0.835334	-0.531371	-0.140928	0.431878	0.792924	-0.429830
19102	6.803232	-1.961803	-5.212324	-0.213987	-0.601772	0.292362	0.345235	0.301470	0.888779	0.833376	-0.533998	-0.142584	0.431621	0.789913	-0.435593
19103	7.147480	-2.013860	-5.269392	-0.219103	-0.618995	0.271867	0.350017	0.304835	0.885756	0.831430	-0.536686	-0.143848	0.431524	0.786793	-0.441298
19104	7.542007	-2.085240	-5.328507	-0.235798	-0.613995	0.256308	0.354848	0.308353	0.882611	0.829477	-0.539380	-0.145045	0.431337	0.783574	-0.447169
19105	7.773552	-2.156445	-5.406554	-0.258815	-0.594875	0.239716	0.359261	0.311655	0.879661	0.827450	-0.542278	-0.145814	0.431577	0.780260	-0.452698
19106	7.721978	-2.307465	-5.588469	-0.277619	-0.561122	0.217153	0.363531	0.314919	0.876739	0.825434	-0.545176	-0.146434	0.431862	0.776923	-0.458133
19107	7.528669	-2.336873	-5.769823	-0.299676	-0.525225	0.195948	0.367291	0.317872	0.874102	0.823369	-0.548244	-0.146601	0.432621	0.773554	-0.463091
19108	7.247578	-2.467407	-5.944510	-0.324748	-0.499344	0.165393	0.370866	0.320893	0.871485	0.821319	-0.551334	-0.146509	0.433466	0.770103	-0.468027
19109	6.921204	-2.551837	-6.029102	-0.338100	-0.481715	0.129160	0.373905	0.323838	0.869094	0.819319	-0.554467	-0.145887	0.434640	0.766613	-0.472645
19110	6.737452	-2.662344	-6.173686	-0.349696	-0.486096	0.084717	0.376767	0.327161	0.866610	0.817446	-0.557473	-0.144936	0.435694	0.763014	-0.477473
19111	6.588261	-2.706819	-6.287756	-0.350128	-0.501591	0.038584	0.379174	0.330728	0.864203	0.815721	-0.560376	-0.143448	0.436836	0.759340	-0.482262
19112	6.601303	-2.749007	-6.394458	-0.350422	-0.538420	-0.010935	0.381492	0.334943	0.861555	0.814197	-0.563049	-0.141628	0.437660	0.755506	-0.487509
19113	6.824930	-2.783503	-6.448598	-0.341225	-0.576358	-0.059518	0.383453	0.339595	0.858859	0.812880	-0.565523	-0.139316	0.438394	0.751571	-0.492902
19114	7.132281	-2.777455	-6.623800	-0.324105	-0.608145	-0.112260	0.385262	0.344865	0.855945	0.811857	-0.567623	-0.136720	0.438704	0.747578	-0.498664
19115	7.298857	-2.735874	-6.663885	-0.308888	-0.620504	-0.164441	0.386587	0.350405	0.853093	0.811088	-0.569451	-0.133651	0.438962	0.743601	-0.504352
19116	7.621516	-2.684159	-6.669537	-0.284886	-0.629081	-0.214450	0.387662	0.356368	0.850129	0.810634	-0.570860	-0.130352	0.438851	0.739676	-0.510185
19117	7.925789	-2.654280	-6.604380	-0.262797	-0.622429	-0.261808	0.388222	0.362441	0.847302	0.810449	-0.571947	-0.126680	0.438698	0.735875	-0.515783
19118	8.019910	-2.561534	-6.623737	-0.236064	-0.593001	-0.303813	0.388413	0.368607	0.844550	0.810560	-0.572624	-0.122857	0.438323	0.732278	-0.521193
19119	7.967157	-2.497643	-6.577192	-0.208679	-0.561737	-0.346817	0.388024	0.374687	0.842049	0.810947	-0.572943	-0.118749	0.437953	0.728935	-0.526167
19120	7.965119	-2.378511	-6.456000	-0.174895	-0.522824	-0.387251	0.387224	0.380781	0.839680	0.811649	-0.572806	-0.114539	0.437360	0.725878	-0.530865
19121	7.919605	-2.223232	-6.385434	-0.143742	-0.479924	-0.427200	0.385824	0.386697	0.837619	0.812628	-0.572287	-0.110109	0.436780	0.723155	-0.535043
19122	7.796204	-2.052546	-6.403613	-0.111246	-0.443115	-0.460265	0.384067	0.392601	0.835677	0.813881	-0.571350	-0.105630	0.435994	0.720710	-0.538967
19123	7.776998	-1.870209	-6.325780	-0.076372	-0.414270	-0.491933	0.381844	0.398386	0.833957	0.815389	-0.570029	-0.101036	0.435128	0.718579	-0.542501
19124	7.745337	-1.615932	-6.318035	-0.049602	-0.390395	-0.512110	0.379414	0.404175	0.832279	0.817089	-0.568383	-0.096468	0.434063	0.716647	-0.545899
19125	7.790326	-1.376831	-6.288670	-0.031103	-0.373007	-0.521326	0.376753	0.409803	0.830734	0.818883	-0.566556	-0.091896	0.432998	0.714896	-0.549032
19126	7.835746	-1.219961	-6.167832	-0.021797	-0.358757	-0.518711	0.374105	0.415371	0.829164	0.820704	-0.564624	-0.087438	0.431846	0.713209	-0.552125
19127	7.874249	-1.105347	-6.110467	-0.018703	-0.343027	-0.510470	0.371382	0.420695	0.827702	0.822484	-0.562693	-0.083041	0.430808	0.711612	-0.554990
19128	7.854156	-1.016119	-6.112455	-0.018512	-0.325365	-0.495579	0.368754	0.425865	0.826232	0.824206	-0.560780	-0.078807	0.429774	0.710046	-0.557790
19129	7.845677	-0.976376	-6.064444	-0.016168	-0.306874	-0.474803	0.366150	0.430707	0.824880	0.825840	-0.558930	-0.074734	0.428862	0.708582	-0.560347
19130	7.956839	-0.895058	-6.001020	-0.017398	-0.288853	-0.460258	0.363634	0.435392	0.823531	0.827413	-0.557113	-0.070809	0.427970	0.707149	-0.562834
19131	8.020849	-0.928471	-5.939616	-0.029079	-0.266609	-0.440212	0.361128	0.439734	0.822326	0.828843	-0.555460	-0.066961	0.427325	0.705761	-0.565062
19132	8.017115	-0.833142	-5.953357	-0.041151	-0.242267	-0.416202	0.358762	0.443823	0.821164	0.830133	-0.553964	-0.063273	0.426813	0.704376	-0.567173
19133	8.031974	-0.859552	-5.990331	-0.050733	-0.217742	-0.394930	0.356411	0.447552	0.820163	0.831288	-0.552628	-0.059684	0.426533	0.703064	-0.569008
19134	8.036176	-0.831468	-5.967571	-0.062417	-0.191634	-0.377063	0.354144	0.451052	0.819228	0.832329	-0.551424	-0.056203	0.426392	0.701771	-0.570707
19135	8.152782	-0.817839	-5.937060	-0.072534	-0.163511	-0.356459	0.351876	0.454176	0.818479	0.833239	-0.550386	-0.052811	0.426494	0.700571	-0.572104
19136	8.232054	-0.778608	-5.917044	-0.085839	-0.125845	-0.326707	0.349741	0.456926	0.817863	0.833986	-0.549550	-0.049612	0.426788	0.699438	-0.573270
19137	8.235553	-0.788214	-5.845190	-0.105676	-0.086826	-0.296397	0.347644	0.459175	0.817497	0.834529	-0.548997	-0.046525	0.427440	0.698399	-0.574050
19138	8.287667	-0.849459	-5.733745	-0.117848	-0.047610	-0.262469	0.345709	0.461020	0.817280	0.834902	-0.548663	-0.043667	0.428280	0.697445	-0.574584
19139	8.557037	-0.871763	-5.641312	-0.128489	-0.010938	-0.237467	0.343780	0.462413	0.817306	0.835130	-0.548527	-0.040933	0.429386	0.696629	-0.574748
19140	8.548815	-0.980844	-5.597979	-0.124525	0.053372	-0.209852	0.341849	0.463264	0.817634	0.835282	-0.548475	-0.038467	0.430631	0.696105	-0.574452
19141	8.347989	-0.974284	-5.449038	-0.116733	0.104369	-0.190809	0.339813	0.463597	0.818294	0.835390	-0.548466	-0.036184	0.432031	0.695890	-0.573660
19142	8.331983	-0.968153	-5.298123	-0.109021	0.147785	-0.179360	0.337727	0.463624	0.819141	0.835493	-0.548445	-0.034056	0.433465	0.695888	-0.572580
19143	8.113771	-0.918861	-5.263179	-0.097884	0.185130	-0.167395	0.335533	0.463265	0.820246	0.835593	-0.548412	-0.032075	0.434973	0.696154	-0.571111
19144	7.784682	-0.794941	-5.191524	-0.096255	0.204431	-0.155308	0.333397	0.462765	0.821398	0.835660	-0.548415	-0.030216	0.436484	0.696484	-0.569554
19145	7.494152	-0.663555	-5.221736	-0.102792	0.208811	-0.138379	0.331337	0.462079	0.822617	0.835633	-0.548551	-0.028449	0.438102	0.696832	-0.567883
19146	7.456705	-0.491722	-5.211072	-0.118314	0.189895	-0.121390	0.329542	0.461494	0.823666	0.835482	-0.548867	-0.026743	0.439741	0.696971	-0.566444
19147	7.518502	-0.455553	-5.317160	-0.158258	0.172247	-0.086202	0.328073	0.460776	0.824653	0.835030	-0.549632	-0.025094	0.441693	0.696843	-0.565082
19148	7.541769	-0.476764	-5.421174	-0.194234	0.160597	-0.061576	0.326901	0.460069	0.825513	0.834339	-0.550753	-0.023455	0.443863	0.696425	-0.563895
19149	7.637929	-0.565741	-5.516618	-0.229353	0.149712	-0.039880	0.325915	0.459257	0.826355	0.833411	-0.552225	-0.021792	0.446325	0.695795	-0.562728
19150	7.824469	-0.628065	-5.563260	-0.256303	0.143725	-0.033161	0.325049	0.458514	0.827109	0.832338	-0.553906	-0.020042	0.448951	0.694948	-0.561685
19151	8.019045	-0.718251	-5.692380	-0.286207	0.153798	-0.026675	0.324149	0.457605	0.827965	0.831098	-0.555829	-0.018177	0.451889	0.694012	-0.560486
19152	8.087993	-0.719059	-5.719220	-0.295393	0.169838	-0.036778	0.323128	0.456704	0.828861	0.829844	-0.557761	-0.016184	0.454915	0.693054	-0.559221
19153	8.237539	-0.750318	-5.775944	-0.314690	0.188377	-0.051850	0.321855	0.455700	0.829908	0.828538	-0.559759	-0.013962	0.458186	0.692104	-0.557726
19154	8.368919	-0.766037	-5.837106	-0.327228	0.212657	-0.068294	0.320366	0.454684	0.831040	0.827218	-0.561763	-0.011538	0.461602	0.691148	-0.556093
19155	8.513232	-0.703293	-5.870111	-0.341734	0.245983	-0.075145	0.318626	0.453418	0.832400	0.825838	-0.563835	-0.008986	0.465262	0.690291	-0.554103
19156	8.667911	-0.685773	-5.925605	-0.363907	0.282424	-0.075879	0.316735	0.451971	0.833907	0.824344	-0.566053	-0.006306	0.469186	0.689424	-0.551869
19157	8.849990	-0.681723	-5.897676	-0.388586	0.321851	-0.064120	0.314713	0.450127	0.835668	0.822680	-0.568494	-0.003607	0.473448	0.688622	-0.549223
19158	8.963562	-0.672894	-5.917697	-0.420150	0.362053	-0.045134	0.312676	0.447964	0.837593	0.820787	-0.571233	-0.000893	0.478061	0.687765	-0.546294
19159	9.045918	-0.826968	-5.970340	-0.446839	0.407015	-0.028153	0.310515	0.445337	0.839795	0.818693	-0.574229	0.001797	0.483035	0.686976	-0.542901
19160	9.101879	-0.940999	-5.943023	-0.467311	0.454858	-0.013488	0.308252	0.442363	0.842197	0.816429	-0.577429	0.004473	0.488288	0.686215	-0.539152
19161	9.079614	-0.982098	-5.887686	-0.486527	0.513632	-0.001075	0.305750	0.438853	0.844941	0.814009	-0.580809	0.007109	0.493869	0.685615	-0.534813
19162	9.001136	-0.985249	-5.847982	-0.492893	0.565113	0.013864	0.303113	0.434971	0.847893	0.811481	-0.584299	0.009650	0.499620	0.685124	-0.530080
19163	9.037848	-0.962311	-5.727329	-0.505172	0.598053	0.027324	0.300362	0.430719	0.851037	0.808827	-0.587923	0.012090	0.505551	0.684710	-0.524967
19164	9.130384	-0.907514	-5.791203	-0.527105	0.627407	0.047357	0.297612	0.426217	0.854263	0.805967	-0.591784	0.014472	0.511708	0.684201	-0.519639
19165	8.889989	-0.910020	-5.699297	-0.541463	0.639278	0.067933	0.294904	0.421444	0.857564	0.802946	-0.595818	0.016689	0.517986	0.683656	-0.514106
19166	9.010862	-0.778990	-5.601622	-0.549585	0.613559	0.070305	0.292330	0.416903	0.860660	0.799837	-0.599919	0.018929	0.524217	0.682854	-0.508829
19167	9.303619	-0.528923	-5.595622	-0.568075	0.576880	0.075763	0.289934	0.412510	0.863582	0.796590	-0.604150	0.021144	0.530454	0.681791	-0.503765
19168	9.301825	-0.234976	-5.549073	-0.600447	0.508735	0.085415	0.287960	0.408599	0.866098	0.793100	-0.608639	0.023448	0.536722	0.680150	-0.499324
19169	9.813009	0.045165	-5.430881	-0.641033	0.396938	0.086938	0.286549	0.405372	0.868080	0.789360	-0.613385	0.025872	0.542955	0.677814	-0.495749
19170	10.571394	0.323010	-5.513122	-0.705776	0.292936	0.100090	0.285800	0.402845	0.869502	0.785179	-0.618612	0.028523	0.549375	0.674563	-0.493105
19171	10.431748	0.524551	-5.759013	-0.792400	0.231326	0.133015	0.285607	0.400460	0.870667	0.780387	-0.624515	0.031251	0.556259	0.670532	-0.490880
19172	10.032746	0.614946	-6.038822	-0.860942	0.172136	0.157979	0.285935	0.398388	0.871509	0.775075	-0.630947	0.034125	0.563471	0.665727	-0.489191
19173	9.933932	0.692164	-6.250616	-0.915695	0.144009	0.159608	0.286397	0.396419	0.872255	0.769392	-0.637693	0.037193	0.570975	0.660454	-0.487635
19174	9.907454	0.613004	-6.376686	-0.946301	0.160847	0.145214	0.286651	0.394499	0.873042	0.763494	-0.644540	0.040564	0.578712	0.654934	-0.485956
19175	9.844323	0.557183	-6.441633	-0.946516	0.210208	0.107922	0.286297	0.392429	0.874090	0.757637	-0.651178	0.044197	0.586532	0.649590	-0.483749
19176	9.679220	0.650128	-6.431579	-0.920122	0.293474	0.063318	0.285109	0.390184	0.875483	0.751981	-0.657427	0.048112	0.594338	0.644629	-0.480849
19177	9.346359	0.805198	-6.322660	-0.878847	0.399318	0.012131	0.282865	0.387542	0.877382	0.746656	-0.663159	0.052200	0.602074	0.640337	-0.476945
19178	8.885023	1.087605	-6.176371	-0.823631	0.522251	-0.028626	0.279556	0.384464	0.879793	0.741702	-0.668355	0.056390	0.609694	0.636780	-0.472000
19179	8.453736	1.356402	-5.831637	-0.768416	0.646587	-0.055655	0.275237	0.380737	0.882771	0.737109	-0.673063	0.060469	0.617183	0.634055	-0.465896
19180	8.066766	1.646325	-5.448552	-0.711557	0.751767	-0.056492	0.270225	0.376425	0.886162	0.732800	-0.677400	0.064288	0.624486	0.632007	-0.458895
19181	7.627811	1.942085	-4.969187	-0.672444	0.828314	-0.046748	0.264744	0.371528	0.889875	0.728667	-0.681509	0.067751	0.631629	0.630486	-0.451146
19182	7.421186	2.271174	-4.537421	-0.640866	0.846795	-0.019793	0.259293	0.366396	0.893600	0.724603	-0.685518	0.070822	0.638528	0.629141	-0.443242
19183	7.502515	2.508114	-4.132113	-0.630057	0.824910	0.012142	0.254151	0.361150	0.897206	0.720489	-0.689562	0.073476	0.645215	0.627753	-0.435458
19184	7.440321	2.684223	-3.903655	-0.621694	0.800694	0.038537	0.249308	0.355929	0.900644	0.716314	-0.693644	0.075841	0.651721	0.626236	-0.427888
19185	7.175467	2.828240	-3.714587	-0.604942	0.751733	0.058875	0.244870	0.350848	0.903850	0.712165	-0.697679	0.077880	0.657921	0.624620	-0.420702
19186	7.209988	2.999629	-3.602332	-0.590914	0.680950	0.065422	0.240908	0.346208	0.906699	0.708053	-0.701638	0.079781	0.663796	0.622771	-0.414164
19187	7.356283	3.180693	-3.430391	-0.587561	0.606966	0.086597	0.237535	0.341864	0.909234	0.703881	-0.705636	0.081426	0.669424	0.620651	-0.408245
19188	7.475163	3.378628	-3.417561	-0.599778	0.518998	0.117176	0.234943	0.337885	0.911392	0.699524	-0.709794	0.082819	0.674884	0.618083	-0.403120
19189	7.601434	3.529701	-3.350188	-0.631975	0.426512	0.155020	0.233193	0.334201	0.913198	0.694825	-0.714261	0.083967	0.680323	0.614932	-0.398771
19190	7.779884	3.571377	-3.399849	-0.682842	0.335728	0.194620	0.232322	0.330812	0.914653	0.689658	-0.719138	0.084925	0.685856	0.611068	-0.395219
19191	7.889206	3.611823	-3.442934	-0.737476	0.256979	0.237187	0.232237	0.327595	0.915832	0.683967	-0.724462	0.085701	0.691560	0.606495	-0.392310
19192	8.049899	3.552181	-3.493003	-0.797332	0.180550	0.284632	0.232998	0.324497	0.916741	0.677717	-0.730249	0.086237	0.697432	0.601198	-0.390063
19193	8.256431	3.451972	-3.586402	-0.859289	0.126386	0.315466	0.234291	0.321497	0.917468	0.670892	-0.736464	0.086746	0.703570	0.595198	-0.388237
19194	8.348636	3.319705	-3.619812	-0.911709	0.087842	0.350532	0.236088	0.318446	0.918071	0.663573	-0.743025	0.087087	0.709882	0.588648	-0.386731
19195	8.433427	3.120451	-3.702560	-0.954043	0.063487	0.381962	0.238204	0.315301	0.918610	0.655789	-0.749876	0.087333	0.716379	0.581611	-0.385394
19196	8.442247	2.985099	-3.701491	-0.995557	0.054537	0.405515	0.240534	0.311991	0.919133	0.647601	-0.756943	0.087462	0.723019	0.574194	-0.384116
19197	8.483710	2.806788	-3.711964	-1.026954	0.052005	0.436284	0.243011	0.308461	0.919672	0.639006	-0.764212	0.087471	0.729806	0.566420	-0.382820
19198	8.524258	2.627640	-3.725533	-1.049083	0.049666	0.455529	0.245619	0.304743	0.920219	0.630148	-0.771550	0.087314	0.736604	0.558428	-0.381540
19199	8.553622	2.455297	-3.688906	-1.063641	0.059373	0.473094	0.248186	0.300837	0.920815	0.621023	-0.778937	0.087101	0.743461	0.550230	-0.380148
19200	8.583742	2.323435	-3.648467	-1.062319	0.075830	0.477486	0.250646	0.296743	0.921477	0.611844	-0.786206	0.086757	0.750215	0.542055	-0.378620
19201	8.588509	2.223187	-3.539619	-1.056715	0.095739	0.483597	0.252909	0.292504	0.922214	0.602574	-0.793374	0.086388	0.756929	0.533854	-0.376906
19202	8.606369	2.125107	-3.462694	-1.043775	0.119246	0.483063	0.254975	0.288078	0.923038	0.593357	-0.800345	0.085880	0.763489	0.525794	-0.375001
19203	8.545268	2.032563	-3.323640	-1.032901	0.144078	0.484622	0.256771	0.283529	0.923948	0.584103	-0.807177	0.085370	0.769995	0.517761	-0.372870
19204	8.469363	1.963886	-3.167936	-1.009259	0.162809	0.483239	0.258399	0.278829	0.924924	0.575000	-0.813760	0.084678	0.776277	0.509950	-0.370601
19205	8.344384	1.920221	-2.991133	-0.990687	0.174701	0.479795	0.259821	0.274126	0.925931	0.565938	-0.820157	0.084006	0.782437	0.502193	-0.368232
19206	8.232286	1.879976	-2.846675	-0.971073	0.173370	0.478251	0.261232	0.269376	0.926927	0.557008	-0.826333	0.083163	0.788353	0.494581	-0.365909
19207	8.070513	1.929180	-2.708400	-0.958362	0.161590	0.481301	0.262658	0.264694	0.927873	0.548062	-0.832378	0.082309	0.794128	0.486913	-0.363699
19208	7.933154	1.883954	-2.617225	-0.950686	0.132259	0.492914	0.264372	0.259987	0.928716	0.539129	-0.838299	0.081205	0.799654	0.479230	-0.361790
19209	7.897245	1.896775	-2.568297	-0.946398	0.082996	0.500314	0.266425	0.255488	0.929378	0.530102	-0.844143	0.080092	0.804990	0.471327	-0.360335
19210	7.863125	1.852310	-2.475995	-0.944326	0.028739	0.519314	0.269012	0.251003	0.929855	0.521028	-0.849905	0.078686	0.810039	0.463313	-0.359414
19211	7.919678	1.742058	-2.457553	-0.939629	-0.024594	0.525919	0.271970	0.246736	0.930136	0.511861	-0.855584	0.077293	0.814881	0.455079	-0.358988
19212	7.997445	1.629372	-2.396357	-0.931033	-0.083359	0.532217	0.275442	0.242590	0.930205	0.502737	-0.861118	0.075708	0.819382	0.446795	-0.359147
19213	8.054300	1.589189	-2.390985	-0.914918	-0.135311	0.529670	0.279232	0.238719	0.930077	0.493638	-0.866497	0.074198	0.823621	0.438402	-0.359794
19214	8.074457	1.518151	-2.375215	-0.895018	-0.186217	0.523004	0.283420	0.235027	0.929750	0.484717	-0.871654	0.072583	0.827480	0.430094	-0.360966
19215	8.127991	1.476879	-2.380123	-0.875687	-0.231917	0.517416	0.287866	0.231597	0.929245	0.475860	-0.876645	0.071073	0.831078	0.421730	-0.362564
19216	8.113014	1.473589	-2.391041	-0.849937	-0.275379	0.507459	0.292645	0.228329	0.928560	0.467248	-0.881392	0.069473	0.834289	0.413537	-0.364622
19217	8.080487	1.488952	-2.408345	-0.828103	-0.318101	0.492294	0.297618	0.225385	0.927699	0.458753	-0.885953	0.068069	0.837239	0.405326	-0.367072
19218	7.961666	1.450942	-2.501515	-0.800507	-0.361217	0.482831	0.302936	0.222588	0.926652	0.450529	-0.890276	0.066565	0.839793	0.397319	-0.369980
19219	7.916816	1.422665	-2.561919	-0.781729	-0.406554	0.472457	0.308498	0.220074	0.925417	0.442387	-0.894449	0.065235	0.842094	0.389267	-0.373294
19220	7.883678	1.404613	-2.656727	-0.757605	-0.452855	0.457090	0.314415	0.217761	0.923972	0.434514	-0.898397	0.063874	0.844003	0.381396	-0.377089
19221	7.840338	1.316006	-2.760033	-0.733416	-0.497899	0.442449	0.320559	0.215759	0.922329	0.426786	-0.902175	0.062714	0.845633	0.373534	-0.381283
19222	7.841123	1.244656	-2.803943	-0.700451	-0.543363	0.414102	0.327004	0.214062	0.920459	0.419456	-0.905683	0.061609	0.846833	0.365945	-0.385952
19223	7.807609	1.211808	-2.855686	-0.664716	-0.586456	0.386135	0.333611	0.212784	0.918383	0.412419	-0.908964	0.060787	0.847711	0.358479	-0.390996
19224	7.741690	1.182391	-2.982271	-0.626977	-0.628986	0.352856	0.340483	0.211840	0.916076	0.405850	-0.911965	0.060044	0.848149	0.351346	-0.396484
19225	7.625066	1.211691	-3.115603	-0.585779	-0.678458	0.323876	0.347573	0.211341	0.913525	0.399637	-0.914736	0.059569	0.848224	0.344373	-0.402398
19226	7.559884	1.226769	-3.233697	-0.548343	-0.726488	0.300601	0.355023	0.211099	0.910712	0.393868	-0.917267	0.059077	0.847837	0.337726	-0.408796
19227	7.511134	1.223227	-3.508742	-0.516597	-0.779988	0.279546	0.362758	0.211238	0.907626	0.388354	-0.919631	0.058816	0.847106	0.331144	-0.415639
19228	7.457379	1.256323	-3.718256	-0.482667	-0.831540	0.277212	0.370962	0.211446	0.904255	0.383188	-0.921825	0.058355	0.845904	0.324852	-0.422986
19229	7.899701	1.230949	-3.888119	-0.453007	-0.889463	0.283369	0.379592	0.211790	0.900586	0.378163	-0.923927	0.057885	0.844335	0.318596	-0.430807
19230	8.421091	1.271291	-4.131617	-0.424931	-0.916227	0.299049	0.388539	0.211947	0.896725	0.373368	-0.925926	0.057073	0.842398	0.312634	-0.438892
19231	8.649980	1.196686	-4.338198	-0.383375	-0.929002	0.306440	0.397527	0.212080	0.892745	0.368805	-0.927807	0.056185	0.840211	0.306914	-0.447044
19232	9.329397	1.174450	-4.482568	-0.318323	-0.943278	0.291231	0.406604	0.212277	0.888601	0.364901	-0.929417	0.055056	0.837568	0.301865	-0.455364
19233	9.351465	1.154908	-4.812714	-0.241464	-0.871985	0.278578	0.414944	0.212392	0.884710	0.361604	-0.930775	0.053853	0.834904	0.297568	-0.463021
19234	9.253333	1.153207	-4.850011	-0.135447	-0.852119	0.235587	0.422989	0.212750	0.880805	0.359426	-0.931699	0.052436	0.831801	0.294404	-0.470567
19235	10.064259	1.322465	-5.015574	-0.060587	-0.820720	0.217342	0.430619	0.213222	0.876985	0.357861	-0.932382	0.050973	0.828554	0.291889	-0.477806
19236	10.122952	1.378990	-5.113483	0.005883	-0.751551	0.227071	0.437740	0.213320	0.873429	0.356862	-0.932872	0.048988	0.825247	0.290250	-0.484481
19237	10.126193	1.540309	-5.209773	0.048977	-0.700455	0.257642	0.444464	0.213036	0.870096	0.355994	-0.933322	0.046667	0.822022	0.289008	-0.490668
19238	10.248441	1.599937	-5.295956	0.070178	-0.657606	0.306388	0.451042	0.212102	0.866934	0.355136	-0.933793	0.043691	0.818803	0.288173	-0.496505
19239	10.626193	1.620235	-5.198714	0.072742	-0.636536	0.367054	0.457581	0.210596	0.863869	0.353928	-0.934403	0.040319	0.815693	0.287297	-0.502101
19240	11.026846	1.554431	-5.123519	0.047272	-0.638879	0.446289	0.464452	0.208284	0.860757	0.352193	-0.935224	0.036265	0.812554	0.286309	-0.507723
19241	11.464093	1.365248	-5.230199	0.013269	-0.670162	0.517449	0.471735	0.205447	0.857472	0.349741	-0.936302	0.031926	0.809412	0.284832	-0.513540
19242	11.434040	1.161132	-5.464545	-0.030065	-0.681928	0.583213	0.479368	0.201946	0.854064	0.346663	-0.937598	0.027123	0.806245	0.283070	-0.519461
19243	10.725517	0.815989	-5.711733	-0.055917	-0.683824	0.628237	0.487065	0.198068	0.850610	0.343036	-0.939059	0.022239	0.803177	0.280958	-0.525327
19244	10.466358	0.545702	-6.005387	-0.059839	-0.693642	0.641308	0.494906	0.194010	0.847011	0.339347	-0.940505	0.017146	0.799945	0.278945	-0.531298
19245	9.814140	0.319362	-6.202924	-0.046843	-0.649230	0.647092	0.502299	0.189811	0.843604	0.335606	-0.941925	0.012106	0.796909	0.277037	-0.536830
19246	8.899388	0.342247	-6.460481	-0.027339	-0.592905	0.654465	0.509292	0.185307	0.840406	0.332017	-0.943249	0.006778	0.793968	0.275577	-0.541914
19247	7.954525	0.427445	-6.564764	-0.033418	-0.530831	0.682928	0.515782	0.180403	0.837510	0.328113	-0.944637	0.001409	0.791398	0.274072	-0.546420
19248	7.183551	0.374492	-6.672824	-0.059148	-0.500340	0.740136	0.522240	0.174799	0.834692	0.323744	-0.946134	-0.004419	0.788958	0.272534	-0.550699
19249	6.870402	0.320877	-6.802563	-0.102771	-0.492292	0.793550	0.528700	0.168705	0.831874	0.318630	-0.947823	-0.010287	0.786734	0.270498	-0.554869
19250	6.587794	0.087154	-6.938120	-0.155518	-0.487878	0.848391	0.535303	0.161996	0.828980	0.312834	-0.949666	-0.016429	0.784592	0.268128	-0.559037
19251	6.377565	-0.238751	-7.061676	-0.203513	-0.476820	0.878076	0.541799	0.155004	0.826092	0.306380	-0.951646	-0.022380	0.782678	0.265224	-0.563091
19252	6.424942	-0.626508	-7.154773	-0.231020	-0.457255	0.863031	0.548080	0.148013	0.823226	0.299811	-0.953583	-0.028154	0.780847	0.262243	-0.567016
19253	6.749462	-0.930747	-7.171052	-0.244524	-0.411460	0.819284	0.553767	0.141348	0.820586	0.293266	-0.955450	-0.033329	0.779318	0.259107	-0.570550
19254	6.991545	-1.146131	-7.163464	-0.247807	-0.345650	0.755848	0.558743	0.135035	0.818274	0.287071	-0.957153	-0.038068	0.778072	0.256173	-0.573567
19255	7.077649	-1.290112	-7.117343	-0.250621	-0.267606	0.683317	0.562821	0.129251	0.816411	0.281172	-0.958736	-0.042052	0.777287	0.253220	-0.575938
19256	7.108679	-1.350431	-7.076742	-0.249704	-0.186953	0.606677	0.566053	0.123925	0.815001	0.275747	-0.960152	-0.045522	0.776883	0.250502	-0.577669
19257	7.141277	-1.375839	-7.060399	-0.259866	-0.118989	0.542949	0.568522	0.119082	0.814004	0.270535	-0.961498	-0.048290	0.776913	0.247671	-0.578849
19258	7.069844	-1.336809	-7.105492	-0.289158	-0.071632	0.507948	0.570530	0.114394	0.813271	0.265335	-0.962822	-0.050710	0.777234	0.244720	-0.579672
19259	6.935997	-1.332367	-7.139635	-0.320691	-0.047989	0.487836	0.572252	0.109885	0.812683	0.259946	-0.964186	-0.052671	0.777789	0.241395	-0.580321
19260	6.803417	-1.338984	-7.252055	-0.362954	-0.032924	0.477753	0.573827	0.105376	0.812169	0.254323	-0.965588	-0.054407	0.778487	0.237773	-0.580880
19261	6.633592	-1.435945	-7.254809	-0.402808	-0.030409	0.468308	0.575315	0.100995	0.811673	0.248391	-0.967055	-0.055732	0.779304	0.233676	-0.581447
19262	6.774974	-1.567710	-7.321402	-0.439487	-0.050054	0.450813	0.576902	0.096769	0.811061	0.242307	-0.968536	-0.056794	0.780046	0.229290	-0.582198
19263	6.722623	-1.668235	-7.356883	-0.468010	-0.056232	0.434512	0.578461	0.092754	0.810419	0.236046	-0.970041	-0.057462	0.780810	0.224536	-0.583026
