// Start Time: Unknown
// Update Rate: 100.0Hz
// Filter Profile: human (46.1)
// Firmware Version: 4.6.0
PacketCounter	Acc_X	Acc_Y	Acc_Z	Gyr_X	Gyr_Y	Gyr_Z	Mat[1][1]	Mat[2][1]	Mat[3][1]	Mat[1][2]	Mat[2][2]	Mat[3][2]	Mat[1][3]	Mat[2][3]	Mat[3][3]
06136	7.061915	3.244221	5.540282	-0.355470	0.048122	0.248761	0.659483	-0.134228	0.739638	-0.196372	0.919001	0.341869	-0.725617	-0.370701	0.579707
06137	7.184956	3.168693	5.474626	-0.354249	-0.009832	0.285118	0.649985	-0.122128	0.750069	-0.211749	0.918808	0.333097	-0.729850	-0.375335	0.571351
06138	7.288565	3.022323	5.456002	-0.357751	-0.054547	0.325957	0.654301	-0.123900	0.746015	-0.207871	0.919021	0.334949	-0.727103	-0.374232	0.575561
06139	7.331098	2.913722	5.388694	-0.352961	-0.095179	0.366626	0.652847	-0.120882	0.747782	-0.207698	0.920784	0.330178	-0.728459	-0.370869	0.576024
06140	7.347048	2.722001	5.337123	-0.347063	-0.123315	0.398507	0.650348	-0.117475	0.750498	-0.207928	0.922709	0.324613	-0.730625	-0.367161	0.575656
06141	7.512431	2.581257	5.293011	-0.332603	-0.137668	0.419818	0.648468	-0.114101	0.752643	-0.208221	0.924411	0.319543	-0.732211	-0.363929	0.575692
06142	7.654753	2.442504	5.324612	-0.322008	-0.132903	0.443566	0.645375	-0.109347	0.755999	-0.209196	0.926562	0.312602	-0.734662	-0.359897	0.575105
06143	7.758611	2.339876	5.365523	-0.301568	-0.120978	0.461131	0.643518	-0.105504	0.758125	-0.209950	0.928138	0.307376	-0.736074	-0.356971	0.575124
06144	7.857499	2.295101	5.403017	-0.293190	-0.092306	0.478343	0.638324	-0.097929	0.763514	-0.212137	0.931087	0.296776	-0.739960	-0.351408	0.573560
06145	7.813126	2.225292	5.363991	-0.293112	-0.064319	0.489704	0.636806	-0.093591	0.765323	-0.213088	0.932582	0.291350	-0.740994	-0.348615	0.573930
06146	7.778632	2.116933	5.339584	-0.292418	-0.039912	0.495954	0.629774	-0.083408	0.772287	-0.215971	0.936216	0.277230	-0.746151	-0.341384	0.571591
06147	7.699814	2.030177	5.372380	-0.295636	-0.019520	0.492407	0.628563	-0.078861	0.773750	-0.216862	0.937621	0.271732	-0.746913	-0.338598	0.572252
06148	7.743798	1.928845	5.389518	-0.301753	0.003603	0.478160	0.621183	-0.067451	0.780757	-0.219489	0.941440	0.255961	-0.752301	-0.330366	0.570002
06149	7.686219	1.844375	5.401903	-0.297558	0.028664	0.455574	0.620398	-0.063065	0.781748	-0.220078	0.942716	0.250705	-0.752777	-0.327582	0.570979
06150	7.705172	1.695819	5.425130	-0.288809	0.041234	0.429434	0.613992	-0.051707	0.787617	-0.222020	0.946250	0.235199	-0.757444	-0.319277	0.569510
06151	7.708002	1.580018	5.459095	-0.280533	0.062183	0.390372	0.613596	-0.047813	0.788172	-0.222291	0.947336	0.230524	-0.757685	-0.316652	0.570653
06152	7.653056	1.525977	5.483149	-0.255157	0.075000	0.352257	0.608692	-0.037128	0.792537	-0.223445	0.950451	0.216138	-0.761292	-0.308650	0.570236
06153	7.622051	1.476203	5.484303	-0.234429	0.087513	0.309436	0.608667	-0.033916	0.792701	-0.223544	0.951282	0.212347	-0.761284	-0.306452	0.571432
06154	7.601583	1.453624	5.550082	-0.208870	0.102483	0.271716	0.605468	-0.024558	0.795490	-0.224038	0.953845	0.199969	-0.763685	-0.299295	0.572021
06155	7.601183	1.485259	5.613361	-0.186595	0.111675	0.232682	0.605800	-0.022005	0.795313	-0.224023	0.954456	0.197049	-0.763427	-0.297541	0.573279
06156	7.556403	1.487641	5.603789	-0.171754	0.112492	0.192791	0.604155	-0.014271	0.796739	-0.224009	0.956479	0.186995	-0.764733	-0.291451	0.574664
06157	7.582924	1.528020	5.698821	-0.149566	0.121153	0.167129	0.604707	-0.012320	0.796353	-0.223876	0.956936	0.184804	-0.764336	-0.290036	0.575908
06158	7.596034	1.608741	5.728101	-0.142582	0.124436	0.134271	0.604388	-0.006385	0.796664	-0.223604	0.958415	0.177319	-0.764667	-0.285307	0.577827
06159	7.571360	1.602722	5.794844	-0.135114	0.118789	0.116411	0.605036	-0.004931	0.796183	-0.223276	0.958806	0.175610	-0.764251	-0.284019	0.579011
06160	7.540216	1.647175	5.827011	-0.125673	0.112275	0.100662	0.605584	-0.000766	0.795781	-0.222302	0.960026	0.170094	-0.764101	-0.279909	0.581207
06161	7.524982	1.664720	5.902248	-0.114866	0.101550	0.087418	0.606166	0.000358	0.795338	-0.221954	0.960347	0.168730	-0.763740	-0.278807	0.582209
06162	7.496093	1.660270	5.857282	-0.108766	0.083109	0.077992	0.607207	0.003218	0.794537	-0.221505	0.961032	0.165388	-0.763043	-0.276419	0.584259
06163	7.479975	1.678921	5.875188	-0.093473	0.063576	0.069714	0.607538	0.004064	0.794280	-0.221216	0.961287	0.164287	-0.762864	-0.275518	0.584918
06164	7.460115	1.695924	5.782416	-0.084643	0.043998	0.067991	0.608841	0.005918	0.793270	-0.219950	0.962027	0.161636	-0.762191	-0.272890	0.587023
06165	7.319376	1.734962	5.758712	-0.068228	0.032276	0.069330	0.608935	0.006673	0.793192	-0.219852	0.962209	0.160685	-0.762144	-0.272232	0.587389
06166	7.284194	1.766367	5.772694	-0.052875	0.006056	0.070850	0.609932	0.007637	0.792417	-0.219093	0.962602	0.159361	-0.761565	-0.270812	0.588795
06167	7.328078	1.797094	5.715386	-0.042670	-0.026857	0.071868	0.609570	0.008256	0.792690	-0.219206	0.962712	0.158540	-0.761823	-0.270403	0.588650
06168	7.410717	1.848879	5.698089	-0.032801	-0.032632	0.083335	0.610684	0.012475	0.791776	-0.224099	0.961724	0.157691	-0.759503	-0.273736	0.590106
06169	7.414403	1.840766	5.695920	-0.023635	-0.039946	0.092186	0.610174	0.013253	0.792156	-0.224482	0.961777	0.156822	-0.759799	-0.273514	0.589826
06170	7.463167	1.931914	5.688900	-0.017424	-0.046266	0.104556	0.610630	0.009865	0.791855	-0.217991	0.963386	0.156099	-0.761322	-0.267936	0.590423
06171	7.445805	1.932848	5.686345	-0.008583	-0.050157	0.118673	0.609989	0.010874	0.792336	-0.218650	0.963397	0.155109	-0.761647	-0.267858	0.590039
06172	7.438548	2.012574	5.692290	-0.013209	-0.052583	0.139493	0.610050	0.015116	0.792218	-0.225126	0.961921	0.155005	-0.759708	-0.272910	0.590223
06173	7.441206	2.050864	5.709730	-0.018820	-0.050008	0.159130	0.609311	0.016510	0.792759	-0.225953	0.961947	0.153633	-0.760056	-0.272737	0.589856
06174	7.593555	2.057075	5.764395	-0.032101	-0.061447	0.183389	0.609819	0.020722	0.792270	-0.232309	0.960423	0.153691	-0.757729	-0.277775	0.590497
06175	7.744760	2.118628	5.762884	-0.055788	-0.066200	0.203173	0.608844	0.022490	0.792971	-0.233124	0.960533	0.151751	-0.758263	-0.277254	0.590058
06176	7.739143	2.008803	5.772930	-0.073081	-0.054703	0.230133	0.608087	0.029046	0.793339	-0.243711	0.957905	0.151731	-0.755537	-0.285612	0.589568
06177	7.631724	1.958839	5.874498	-0.089736	-0.065389	0.254519	0.606971	0.031298	0.794108	-0.244580	0.958084	0.149182	-0.756153	-0.284772	0.589184
06178	7.612028	1.864025	5.916297	-0.115257	-0.108756	0.277124	0.605661	0.031802	0.795087	-0.245278	0.958008	0.148523	-0.756976	-0.284972	0.588029
06179	7.718979	1.752713	5.861873	-0.129192	-0.139465	0.297232	0.603874	0.034254	0.796343	-0.246097	0.958277	0.145398	-0.758137	-0.283780	0.587109
06180	7.690010	1.631762	5.834493	-0.143912	-0.157886	0.318938	0.602470	0.042110	0.797030	-0.256813	0.955729	0.143629	-0.755697	-0.291220	0.586612
06181	7.592198	1.530971	5.831002	-0.152726	-0.178356	0.333590	0.600262	0.044781	0.798549	-0.257664	0.956028	0.140072	-0.757162	-0.289837	0.585405
06182	7.573338	1.367031	5.811290	-0.162883	-0.206812	0.349857	0.599309	0.031926	0.799881	-0.235993	0.961845	0.138426	-0.764942	-0.271726	0.583977
06183	7.707097	1.287661	5.823351	-0.166402	-0.229574	0.353984	0.596713	0.034710	0.801703	-0.236835	0.962178	0.134620	-0.766709	-0.270201	0.582365
06184	7.871376	1.156748	5.843083	-0.160524	-0.233827	0.346609	0.595177	0.029689	0.803046	-0.225832	0.965224	0.131691	-0.771210	-0.259733	0.581184
06185	7.903755	1.099792	5.792969	-0.155017	-0.229704	0.337682	0.592639	0.032355	0.804818	-0.226641	0.965521	0.128075	-0.772925	-0.258307	0.579538
06186	7.877055	1.077043	5.856006	-0.148071	-0.225432	0.326530	0.590884	0.033700	0.806052	-0.226387	0.965909	0.125571	-0.774341	-0.256677	0.578370
06187	7.786122	1.047702	5.824479	-0.152610	-0.246233	0.312850	0.588265	0.036093	0.807862	-0.227048	0.966191	0.122164	-0.776140	-0.255289	0.576572
06188	7.775392	0.966186	5.753929	-0.149859	-0.252285	0.301519	0.586131	0.036179	0.809408	-0.223994	0.967302	0.118968	-0.778638	-0.251034	0.575070
06189	7.674262	0.921076	5.710941	-0.139593	-0.267320	0.281455	0.583415	0.038234	0.811274	-0.224552	0.967547	0.115884	-0.780515	-0.249782	0.573067
06190	7.613940	0.846825	5.685389	-0.131500	-0.298333	0.258826	0.581157	0.037902	0.812908	-0.221484	0.968574	0.113181	-0.783072	-0.245822	0.571288
06191	7.539467	0.806182	5.615402	-0.114612	-0.322332	0.235648	0.578106	0.039396	0.815010	-0.221952	0.968764	0.110607	-0.785195	-0.244836	0.568793
06192	7.408613	0.811553	5.581710	-0.102281	-0.348060	0.219946	0.574928	0.047871	0.816802	-0.233889	0.966246	0.108000	-0.784062	-0.253133	0.566719
06193	7.340028	0.885536	5.530993	-0.094890	-0.380933	0.205951	0.571454	0.048900	0.819176	-0.234325	0.966387	0.105776	-0.786468	-0.252400	0.563704
06194	7.436627	0.840963	5.528371	-0.089432	-0.423667	0.202240	0.568403	0.050160	0.821220	-0.235226	0.966384	0.103783	-0.788408	-0.252163	0.561094
06195	7.506747	0.898186	5.537156	-0.083837	-0.441614	0.199649	0.564444	0.050980	0.823896	-0.235695	0.966494	0.101670	-0.791107	-0.251575	0.557547
06196	7.503188	0.860713	5.572578	-0.079478	-0.461785	0.193125	0.561066	0.051917	0.826141	-0.236194	0.966581	0.099666	-0.793358	-0.251049	0.554579
06197	7.437050	0.878266	5.514656	-0.071157	-0.491111	0.197121	0.556695	0.052593	0.829050	-0.236731	0.966657	0.097639	-0.796272	-0.250617	0.550584
06198	7.415460	0.852745	5.549090	-0.071020	-0.517583	0.202904	0.552787	0.053619	0.831596	-0.237482	0.966683	0.095532	-0.798767	-0.250298	0.547104
06199	7.422925	0.835333	5.534437	-0.062283	-0.558087	0.210142	0.547819	0.054257	0.834836	-0.238141	0.966725	0.093439	-0.801987	-0.249996	0.542511
06200	7.513144	0.821990	5.474469	-0.056882	-0.589937	0.218262	0.543192	0.057164	0.837661	-0.242476	0.965850	0.091325	-0.803834	-0.252719	0.538502
06201	7.632504	0.795864	5.462915	-0.044947	-0.609933	0.226812	0.537726	0.057816	0.841135	-0.243340	0.965833	0.089177	-0.807240	-0.252635	0.533422
06202	7.743588	0.799902	5.461257	-0.038927	-0.628806	0.232241	0.532743	0.061060	0.844071	-0.248467	0.964722	0.087035	-0.808980	-0.256091	0.529121
06203	7.923014	0.857749	5.514214	-0.030701	-0.657968	0.239950	0.526810	0.061693	0.847742	-0.249491	0.964654	0.084840	-0.812543	-0.256198	0.523581
06204	8.146527	0.851520	5.512050	-0.026821	-0.674040	0.240404	0.521201	0.067130	0.850790	-0.258892	0.962362	0.082666	-0.813219	-0.263348	0.518964
06205	8.242074	0.835112	5.437327	-0.023083	-0.682138	0.256423	0.514974	0.067804	0.854520	-0.260034	0.962250	0.080356	-0.816813	-0.263585	0.513165
06206	8.117434	0.867263	5.230436	-0.028781	-0.707310	0.263117	0.508916	0.072430	0.857764	-0.268157	0.960211	0.078019	-0.817983	-0.269720	0.508089
06207	7.883358	0.908911	5.019679	-0.029633	-0.735854	0.283964	0.502118	0.073174	0.861698	-0.269350	0.960084	0.075423	-0.821784	-0.269970	0.501785
06208	7.958450	0.920704	5.031961	-0.047296	-0.790979	0.296036	0.495436	0.074900	0.865409	-0.272152	0.959499	0.072760	-0.824910	-0.271571	0.495754
06209	8.355421	1.019216	4.937705	-0.074787	-0.859966	0.315933	0.487459	0.075600	0.869867	-0.273087	0.959465	0.069647	-0.829341	-0.271500	0.488345
06210	8.926712	1.084236	4.910981	-0.115725	-0.889066	0.344277	0.480090	0.076209	0.873903	-0.272883	0.959766	0.066215	-0.833696	-0.270262	0.481570
06211	9.217921	1.069851	4.828869	-0.159676	-0.887521	0.378646	0.471633	0.077453	0.878387	-0.273351	0.959906	0.062130	-0.838356	-0.269410	0.473895
06212	9.335399	0.977118	4.677303	-0.214503	-0.875319	0.405735	0.463791	0.079685	0.882354	-0.274805	0.959763	0.057770	-0.842247	-0.269269	0.467028
06213	9.194921	0.867806	4.458183	-0.268088	-0.863006	0.436556	0.455301	0.081564	0.886594	-0.274548	0.960130	0.052662	-0.846950	-0.267390	0.459541
06214	8.988439	0.602968	4.252244	-0.311780	-0.842978	0.456214	0.447425	0.083921	0.890375	-0.274619	0.960380	0.047480	-0.851114	-0.265758	0.452745
06215	9.029872	0.375659	4.262022	-0.348696	-0.809481	0.463702	0.439244	0.086239	0.894219	-0.273700	0.960908	0.041772	-0.855660	-0.263096	0.445676
06216	9.222043	0.220428	4.012103	-0.384235	-0.816292	0.458884	0.431401	0.088729	0.897786	-0.273093	0.961306	0.036219	-0.859833	-0.260804	0.438940
06217	9.033323	-0.037442	3.819308	-0.399547	-0.709412	0.445849	0.424071	0.091181	0.901027	-0.271557	0.961940	0.030464	-0.863957	-0.257599	0.432691
06218	8.859189	-0.290765	4.013998	-0.399403	-0.639780	0.423356	0.417670	0.093580	0.903767	-0.269929	0.962554	0.025079	-0.867577	-0.254427	0.427290
06219	8.861132	-0.430449	3.967788	-0.402141	-0.647457	0.388175	0.410994	0.095685	0.906602	-0.268041	0.963203	0.019854	-0.871342	-0.251167	0.421518
06220	8.989278	-0.605443	3.930057	-0.394171	-0.609752	0.353129	0.404886	0.097726	0.909130	-0.266261	0.963785	0.014980	-0.874741	-0.248131	0.416244
06221	8.957133	-0.706829	4.011084	-0.384446	-0.555279	0.308828	0.399198	0.099338	0.911467	-0.264134	0.964428	0.010574	-0.877994	-0.244970	0.411237
06222	8.791504	-0.789960	3.941387	-0.372708	-0.524552	0.269228	0.393986	0.100809	0.913571	-0.261770	0.965109	0.006394	-0.881052	-0.241664	0.406628
06223	8.625221	-0.889645	3.918856	-0.362853	-0.510546	0.229281	0.388880	0.101801	0.915647	-0.259465	0.965748	0.002825	-0.883997	-0.238677	0.401974
06224	8.575998	-0.963427	3.934194	-0.349326	-0.497687	0.179294	0.384064	0.102662	0.917581	-0.256912	0.966435	-0.000594	-0.886843	-0.235509	0.397548
06225	8.511468	-1.028024	3.898281	-0.334229	-0.498689	0.131635	0.379295	0.102771	0.919551	-0.254446	0.967082	-0.003129	-0.889602	-0.232789	0.392959
06226	8.443491	-1.079768	3.922414	-0.316580	-0.489502	0.091858	0.374749	0.102959	0.921392	-0.251735	0.967779	-0.005757	-0.892296	-0.229789	0.388593
06227	8.521213	-1.195386	4.045215	-0.293360	-0.490442	0.052557	0.370232	0.102351	0.923283	-0.249310	0.968396	-0.007379	-0.894859	-0.227452	0.384049
06228	8.660247	-1.200138	4.053911	-0.264498	-0.515817	-0.000222	0.365669	0.101761	0.925165	-0.246676	0.969055	-0.009091	-0.897461	-0.224892	0.379456
06229	8.648971	-1.209216	3.923893	-0.227859	-0.528675	-0.042734	0.361021	0.100166	0.927163	-0.244473	0.969609	-0.009558	-0.899943	-0.223215	0.374537
06230	8.474344	-1.180753	3.874426	-0.190411	-0.521463	-0.077186	0.356600	0.098930	0.929004	-0.242078	0.970201	-0.010395	-0.902349	-0.221185	0.369923
06231	8.199528	-1.169498	3.765681	-0.158117	-0.548433	-0.113493	0.351916	0.096622	0.931031	-0.240248	0.970661	-0.009925	-0.904674	-0.220186	0.364805
06232	8.152673	-1.161741	3.694965	-0.115823	-0.592731	-0.150385	0.347028	0.094623	0.933069	-0.238193	0.971167	-0.009898	-0.907103	-0.218816	0.359561
06233	8.249384	-1.168400	3.547293	-0.070011	-0.626357	-0.178153	0.341760	0.091527	0.935320	-0.236944	0.971486	-0.008488	-0.909427	-0.218718	0.353702
06234	8.224803	-1.053153	3.440931	-0.019327	-0.642807	-0.201328	0.336524	0.089011	0.937459	-0.235558	0.971830	-0.007716	-0.911737	-0.218229	0.348011
06235	8.239335	-0.964067	3.397973	0.025802	-0.671722	-0.218662	0.330904	0.085422	0.939790	-0.235064	0.971964	-0.005579	-0.913919	-0.219064	0.341706
06236	8.324831	-0.866899	3.432064	0.062009	-0.717320	-0.222401	0.325007	0.082593	0.942098	-0.234376	0.972136	-0.004371	-0.916209	-0.219385	0.335309
06237	8.604665	-0.766752	3.469934	0.088290	-0.775704	-0.227774	0.318422	0.078675	0.944678	-0.234454	0.972125	-0.001934	-0.918498	-0.220867	0.327992
06238	8.808053	-0.643750	3.295991	0.122298	-0.839351	-0.226995	0.311403	0.075534	0.947271	-0.234290	0.972167	-0.000500	-0.920943	-0.221781	0.320432
06239	8.731813	-0.512000	3.180210	0.132463	-0.859356	-0.223427	0.304000	0.071453	0.949989	-0.234824	0.972036	0.002034	-0.923278	-0.223698	0.312278
06240	8.681183	-0.546737	3.083381	0.152321	-0.906209	-0.214297	0.296302	0.068225	0.952655	-0.234901	0.972013	0.003449	-0.925757	-0.224802	0.304035
06241	8.782840	-0.542892	2.982033	0.163872	-0.976615	-0.213727	0.287749	0.063946	0.955569	-0.235796	0.971784	0.005974	-0.928224	-0.227038	0.294708
06242	8.880959	-0.472703	2.715026	0.176371	-1.010173	-0.211874	0.279023	0.060508	0.958376	-0.236282	0.971656	0.007445	-0.930762	-0.228524	0.285411
06243	8.871452	-0.462535	2.569653	0.191740	-1.007797	-0.207205	0.270120	0.056184	0.961186	-0.237499	0.971337	0.009966	-0.933075	-0.230973	0.275721
06244	8.914017	-0.382792	2.561763	0.197133	-1.035277	-0.212124	0.261080	0.052633	0.963881	-0.238220	0.971143	0.011495	-0.935461	-0.232617	0.266085
06245	9.144855	-0.325171	2.447384	0.195562	-1.082496	-0.218741	0.251462	0.047983	0.966677	-0.239491	0.970796	0.014112	-0.937769	-0.235059	0.255610
06246	9.475186	-0.268492	2.276839	0.201284	-1.085954	-0.227722	0.241923	0.044059	0.969295	-0.240094	0.970621	0.015805	-0.940122	-0.236545	0.245393
06247	9.768365	-0.146323	2.195363	0.210434	-1.070120	-0.239211	0.232425	0.039197	0.971824	-0.241506	0.970220	0.018627	-0.942154	-0.239031	0.234970
06248	10.020330	-0.067146	2.150816	0.210968	-1.045912	-0.254639	0.223233	0.035073	0.974134	-0.242397	0.969958	0.020625	-0.944146	-0.240731	0.225028
06249	10.184210	0.046304	2.028273	0.208575	-1.016335	-0.268604	0.214279	0.030014	0.976311	-0.243779	0.969541	0.023698	-0.945863	-0.243083	0.215069
06250	10.275603	0.129844	1.880193	0.197797	-0.951691	-0.278939	0.205964	0.025794	0.978219	-0.244559	0.969288	0.025933	-0.947507	-0.244573	0.205947
06251	10.261120	0.176152	1.828450	0.194296	-0.883077	-0.285566	0.198289	0.020862	0.979921	-0.245823	0.968877	0.029116	-0.948816	-0.246660	0.197246
06252	10.299749	0.236667	1.803907	0.173819	-0.825816	-0.294874	0.191145	0.016671	0.981420	-0.246204	0.968706	0.031496	-0.950183	-0.247650	0.189268
06253	10.419181	0.277805	1.723788	0.164514	-0.773767	-0.290027	0.184502	0.011944	0.982760	-0.247222	0.968339	0.034644	-0.951231	-0.249352	0.181613
06254	10.476262	0.296191	1.681981	0.153367	-0.708463	-0.295501	0.178428	0.007978	0.983921	-0.247529	0.968172	0.037037	-0.952309	-0.250157	0.174724
06255	10.431530	0.314816	1.592384	0.133257	-0.627150	-0.288144	0.173165	0.003621	0.984886	-0.248291	0.967855	0.040097	-0.953082	-0.251482	0.168498
06256	10.331228	0.298074	1.567669	0.120531	-0.549543	-0.279810	0.168540	0.000158	0.985695	-0.248462	0.967716	0.042328	-0.953866	-0.252041	0.163138
06257	10.315668	0.331485	1.578203	0.104122	-0.499886	-0.272468	0.164445	-0.003735	0.986379	-0.249000	0.967449	0.045176	-0.954440	-0.253038	0.158162
06258	10.331393	0.319807	1.534343	0.087796	-0.444260	-0.265386	0.160774	-0.006841	0.986968	-0.248904	0.967375	0.047251	-0.955091	-0.253257	0.153826
06259	10.320880	0.220104	1.547397	0.074150	-0.372392	-0.254966	0.157849	-0.010247	0.987410	-0.249205	0.967166	0.049875	-0.955500	-0.253940	0.150113
06260	10.192032	0.180702	1.579368	0.069094	-0.315620	-0.248141	0.155338	-0.012896	0.987777	-0.248927	0.967138	0.051773	-0.955984	-0.253927	0.147023
06261	10.069759	0.118174	1.547305	0.071850	-0.281408	-0.241295	0.153247	-0.015939	0.988059	-0.249240	0.966921	0.054255	-0.956240	-0.254579	0.144205
06262	9.973147	0.071773	1.490895	0.070292	-0.246089	-0.239235	0.151385	-0.018326	0.988305	-0.249108	0.966850	0.056086	-0.956571	-0.254685	0.141801
06263	9.949673	0.040403	1.534730	0.071990	-0.210858	-0.242710	0.149970	-0.021205	0.988463	-0.249429	0.966620	0.058580	-0.956710	-0.255337	0.139675
06264	9.962590	0.025160	1.520122	0.084852	-0.186369	-0.245966	0.148695	-0.023516	0.988603	-0.249316	0.966531	0.060491	-0.956939	-0.255469	0.137855
06265	10.011901	-0.000681	1.575114	0.096066	-0.157548	-0.257551	0.147828	-0.026403	0.988661	-0.249852	0.966222	0.063163	-0.956933	-0.256356	0.136238
06266	9.991893	0.018255	1.535820	0.113765	-0.129409	-0.263741	0.147144	-0.028727	0.988698	-0.250030	0.966035	0.065279	-0.956992	-0.256809	0.134964
06267	9.905715	0.023236	1.515605	0.130001	-0.094949	-0.269733	0.146909	-0.031571	0.988646	-0.250876	0.965620	0.068115	-0.956807	-0.258034	0.133938
06268	9.696657	0.079333	1.566031	0.144361	-0.062823	-0.279249	0.146912	-0.033862	0.988570	-0.251357	0.965329	0.070420	-0.956680	-0.258829	0.133307
06269	9.774561	0.134540	1.601277	0.157564	-0.065632	-0.281459	0.146991	-0.036743	0.988455	-0.252449	0.964822	0.073406	-0.956380	-0.260324	0.132545
06270	9.850957	0.177801	1.546726	0.160127	-0.044009	-0.275944	0.147185	-0.038952	0.988342	-0.252973	0.964508	0.075686	-0.956212	-0.261164	0.132107
06271	9.901537	0.203593	1.523878	0.169602	-0.009797	-0.274695	0.147786	-0.041621	0.988143	-0.254188	0.963954	0.078618	-0.955797	-0.262793	0.131879
06272	9.833394	0.261455	1.645205	0.183474	0.001913	-0.273504	0.148414	-0.043673	0.987961	-0.255059	0.963534	0.080909	-0.955467	-0.263997	0.131863
06273	9.828537	0.270328	1.608435	0.189184	0.003090	-0.270957	0.149134	-0.046269	0.987734	-0.256462	0.962912	0.083828	-0.954980	-0.265818	0.131737
06274	9.852640	0.317381	1.579780	0.194559	0.019393	-0.267071	0.149930	-0.048233	0.987519	-0.257214	0.962515	0.086063	-0.954653	-0.266907	0.131903
06275	9.826280	0.329098	1.611270	0.202249	0.039644	-0.263112	0.150985	-0.050653	0.987238	-0.258746	0.961844	0.088922	-0.954072	-0.268870	0.132117
06276	9.842941	0.398777	1.654905	0.205836	0.049943	-0.262139	0.152079	-0.052478	0.986974	-0.259678	0.961386	0.091130	-0.953645	-0.270155	0.132579
06277	9.854408	0.433522	1.573209	0.201122	0.070625	-0.258794	0.153424	-0.054768	0.986642	-0.261199	0.960703	0.093945	-0.953014	-0.272123	0.133089
06278	9.816589	0.394089	1.591456	0.204577	0.101139	-0.252328	0.155048	-0.056296	0.986302	-0.262580	0.960115	0.096079	-0.952372	-0.273880	0.134081
06279	9.778169	0.406670	1.663806	0.207410	0.125057	-0.254942	0.156907	-0.058393	0.985886	-0.264155	0.959400	0.098865	-0.951631	-0.275940	0.135112
06280	9.891850	0.410642	1.679318	0.211209	0.141856	-0.258880	0.158889	-0.059939	0.985475	-0.265143	0.958897	0.101071	-0.951028	-0.277351	0.136465
06281	9.953204	0.456308	1.677694	0.210835	0.168162	-0.255757	0.161165	-0.061916	0.984983	-0.266737	0.958155	0.103874	-0.950199	-0.279472	0.137906
06282	9.952175	0.506732	1.731183	0.205676	0.200263	-0.250695	0.163689	-0.063236	0.984483	-0.267450	0.957725	0.105986	-0.949566	-0.280649	0.139856
06283	9.902760	0.566064	1.752103	0.194823	0.214252	-0.237781	0.166358	-0.064903	0.983927	-0.268906	0.957025	0.108594	-0.948691	-0.282649	0.141756
06284	9.803423	0.573562	1.742362	0.175667	0.224890	-0.224709	0.169046	-0.065889	0.983403	-0.269447	0.956664	0.110415	-0.948062	-0.283641	0.143967
06285	9.777698	0.549542	1.778819	0.159345	0.240980	-0.215002	0.171908	-0.067253	0.982815	-0.270589	0.956069	0.112753	-0.947222	-0.285322	0.146158
06286	9.913887	0.471106	1.820393	0.151552	0.242229	-0.224512	0.174827	-0.068105	0.982241	-0.271390	0.955627	0.114563	-0.946458	-0.286599	0.148586
06287	10.067949	0.420791	1.811949	0.148657	0.234072	-0.235319	0.177678	-0.069674	0.981619	-0.272380	0.955039	0.117089	-0.945642	-0.288177	0.150712
06288	10.026225	0.379294	1.682727	0.152842	0.277321	-0.247133	0.180944	-0.070751	0.980945	-0.272402	0.954783	0.119111	-0.945017	-0.288763	0.153489
06289	9.951016	0.383407	1.781573	0.161282	0.328171	-0.264531	0.184763	-0.072318	0.980119	-0.273440	0.954128	0.121947	-0.943977	-0.290535	0.156513
06290	10.071902	0.368130	1.917470	0.171195	0.331551	-0.285564	0.188623	-0.073554	0.979291	-0.273707	0.953740	0.124354	-0.943136	-0.291495	0.159765
06291	10.387880	0.469891	2.007343	0.187244	0.350183	-0.304502	0.192757	-0.075426	0.978343	-0.274890	0.952967	0.127629	-0.941956	-0.293538	0.162957
06292	10.726064	0.632427	2.200140	0.215344	0.413614	-0.321831	0.197543	-0.076687	0.977290	-0.275737	0.952338	0.130464	-0.940716	-0.295247	0.166982
06293	11.089041	0.827602	2.648606	0.229956	0.450237	-0.343474	0.202722	-0.078614	0.976076	-0.277210	0.951391	0.134200	-0.939180	-0.297783	0.171076
06294	11.393853	1.139756	2.832936	0.237479	0.445956	-0.347405	0.207866	-0.080006	0.974880	-0.278221	0.950647	0.137341	-0.937755	-0.299781	0.175348
06295	11.521124	1.481590	2.839738	0.220912	0.454813	-0.338804	0.213071	-0.081849	0.973602	-0.279577	0.949710	0.141025	-0.936183	-0.302245	0.179472
06296	11.354085	1.581125	2.958897	0.206751	0.485017	-0.323188	0.218533	-0.082899	0.972302	-0.280221	0.949088	0.143902	-0.934730	-0.303907	0.184177
06297	11.224778	1.657368	3.055613	0.194168	0.444805	-0.325705	0.223600	-0.084625	0.971000	-0.281313	0.948225	0.147420	-0.933202	-0.306118	0.188216
06298	11.026965	1.805513	2.813183	0.176430	0.360578	-0.322964	0.227943	-0.086047	0.969865	-0.281689	0.947664	0.150281	-0.932037	-0.307456	0.191775
06299	10.675387	1.884158	2.505828	0.158651	0.338294	-0.310710	0.231968	-0.087939	0.968740	-0.282451	0.946906	0.153591	-0.930813	-0.309250	0.194813
06300	10.131670	1.876279	2.195451	0.147487	0.301239	-0.304088	0.235737	-0.089364	0.967699	-0.282680	0.946401	0.156260	-0.929796	-0.310386	0.197841
06301	9.537344	1.973411	1.771569	0.142071	0.240420	-0.293784	0.238801	-0.091387	0.966759	-0.283302	0.945695	0.159375	-0.928824	-0.311944	0.199943
06302	9.051222	2.004501	1.312540	0.146619	0.188168	-0.289968	0.241474	-0.093023	0.965938	-0.283808	0.945103	0.161966	-0.927978	-0.313252	0.201817
06303	8.668650	2.195978	0.875648	0.149229	0.141829	-0.291852	0.243617	-0.095327	0.965175	-0.284483	0.944362	0.165077	-0.927211	-0.314792	0.202943
06304	8.319973	2.357299	0.467744	0.151888	0.096967	-0.278666	0.245348	-0.097348	0.964535	-0.284462	0.943919	0.167626	-0.926761	-0.315500	0.203896
06305	7.970405	2.560812	0.126309	0.149936	0.069267	-0.264644	0.246741	-0.099618	0.963948	-0.285199	0.943186	0.170475	-0.926164	-0.316980	0.204312
06306	7.732762	2.716246	-0.186660	0.138010	0.040718	-0.250014	0.247834	-0.101543	0.963466	-0.285467	0.942685	0.172784	-0.925790	-0.317859	0.204642
06307	7.773294	2.900476	-0.144359	0.124922	0.019203	-0.234262	0.248679	-0.103681	0.963021	-0.286040	0.942049	0.175287	-0.925386	-0.319053	0.204611
06308	8.257544	3.052786	0.046752	0.106387	-0.009554	-0.230980	0.249181	-0.105697	0.962672	-0.286065	0.941639	0.177434	-0.925243	-0.319600	0.204403
06309	8.989640	3.198520	0.265542	0.076227	-0.031415	-0.222362	0.249525	-0.107882	0.962340	-0.286215	0.941160	0.179721	-0.925105	-0.320281	0.203965
06310	9.676571	3.328569	0.412731	0.054209	0.021887	-0.220568	0.250277	-0.109760	0.961933	-0.286036	0.940820	0.181772	-0.924957	-0.320640	0.204070
06311	10.078990	3.358030	0.645201	0.017000	0.106703	-0.221115	0.251894	-0.111489	0.961311	-0.285637	0.940523	0.183924	-0.924641	-0.320915	0.205067
06312	10.188748	3.366227	0.672069	-0.001806	0.169131	-0.217656	0.253913	-0.112997	0.960604	-0.284770	0.940399	0.185892	-0.924356	-0.320751	0.206601
06313	10.049569	3.368869	0.753563	-0.012330	0.263670	-0.224196	0.256985	-0.114250	0.959638	-0.284082	0.940186	0.188010	-0.923719	-0.320932	0.209157
06314	9.879576	3.435816	0.900107	-0.024011	0.325158	-0.228931	0.260436	-0.115447	0.958564	-0.283000	0.940090	0.190112	-0.923084	-0.320785	0.212161
06315	9.631356	3.520543	0.865476	-0.039851	0.357529	-0.229712	0.264381	-0.116451	0.957362	-0.282028	0.939953	0.192218	-0.922259	-0.320822	0.215664
06316	9.283551	3.482859	0.876106	-0.047065	0.431405	-0.225622	0.268787	-0.117329	0.956027	-0.280824	0.939886	0.194301	-0.921353	-0.320701	0.219680
06317	8.910813	3.451864	1.086150	-0.044186	0.478767	-0.239112	0.273863	-0.118032	0.954499	-0.279767	0.939748	0.196478	-0.920179	-0.320846	0.224341
06318	8.703462	3.468359	1.289402	-0.041094	0.458253	-0.246471	0.278573	-0.119052	0.953008	-0.278709	0.939566	0.198842	-0.919086	-0.321003	0.228557
06319	8.651841	3.524722	1.405260	-0.027001	0.440931	-0.246276	0.283306	-0.119941	0.951500	-0.277768	0.939360	0.201115	-0.917923	-0.321273	0.232811
06320	8.677087	3.627708	1.645786	-0.012683	0.415373	-0.243781	0.287599	-0.121141	0.950059	-0.276949	0.939072	0.203577	-0.916835	-0.321666	0.236526
06321	8.612022	3.698236	1.709444	-0.016250	0.338513	-0.231287	0.291338	-0.122215	0.948781	-0.276130	0.938845	0.205725	-0.915901	-0.321922	0.239774
06322	8.397717	3.763436	1.620940	-0.025058	0.285950	-0.203553	0.294323	-0.123520	0.947690	-0.275261	0.938637	0.207827	-0.915208	-0.322030	0.242262
06323	8.283046	3.826534	1.687705	-0.039580	0.235052	-0.169079	0.296936	-0.124342	0.946767	-0.274398	0.938557	0.209323	-0.914623	-0.321947	0.244572
06324	8.321310	3.811743	1.710606	-0.063707	0.148380	-0.137736	0.298520	-0.125480	0.946119	-0.273546	0.938481	0.210776	-0.914362	-0.321728	0.245831
06325	8.541159	3.826635	1.638981	-0.084066	0.092200	-0.095227	0.299620	-0.126069	0.945692	-0.272492	0.938633	0.211461	-0.914317	-0.321051	0.246881
06326	8.653241	3.730085	1.558983	-0.099640	0.090535	-0.054381	0.300453	-0.126673	0.945347	-0.271548	0.938764	0.212095	-0.914325	-0.320431	0.247657
06327	8.713829	3.594585	1.667922	-0.105441	0.110491	-0.023638	0.301525	-0.126534	0.945025	-0.270512	0.939074	0.212048	-0.914279	-0.319578	0.248926
06328	8.713447	3.482458	1.669970	-0.101720	0.112853	0.003242	0.302423	-0.126546	0.944736	-0.269819	0.939242	0.212182	-0.914187	-0.319076	0.249904
06329	8.801186	3.397497	1.713400	-0.095791	0.147419	0.030625	0.303685	-0.125781	0.944433	-0.269036	0.939588	0.211645	-0.914000	-0.318359	0.251500
06330	8.851940	3.359689	1.893438	-0.083818	0.206771	0.064882	0.305279	-0.124939	0.944031	-0.268729	0.939759	0.211275	-0.913559	-0.318186	0.253314
06331	8.877305	3.260811	2.011256	-0.076067	0.242872	0.102456	0.307220	-0.123197	0.943631	-0.268347	0.940130	0.210106	-0.913020	-0.317769	0.255767
06332	8.781049	3.193071	2.147995	-0.063390	0.284778	0.129899	0.309358	-0.121513	0.943150	-0.268458	0.940300	0.209202	-0.912265	-0.317914	0.258268
06333	8.746609	3.094945	2.260742	-0.039319	0.301717	0.154495	0.311691	-0.119094	0.942690	-0.268579	0.940613	0.207635	-0.911435	-0.317905	0.261195
06334	8.664698	3.059046	2.327433	-0.018008	0.313072	0.166390	0.313998	-0.116983	0.942189	-0.269251	0.940665	0.206525	-0.910444	-0.318534	0.263870
06335	8.635891	3.023963	2.381756	0.006168	0.326765	0.197444	0.316437	-0.114077	0.941729	-0.269929	0.940875	0.204674	-0.909399	-0.318967	0.266935
06336	8.581095	3.004037	2.422369	0.023774	0.344973	0.231338	0.318867	-0.111245	0.941248	-0.271236	0.940844	0.203084	-0.908160	-0.320057	0.269830
06337	8.551863	2.928034	2.518241	0.047430	0.355820	0.266768	0.321368	-0.107588	0.940823	-0.272520	0.940986	0.200695	-0.906893	-0.320890	0.273082
06338	8.517372	2.857338	2.591604	0.070730	0.366061	0.306783	0.323785	-0.103964	0.940401	-0.274548	0.940853	0.198542	-0.905421	-0.322470	0.276091
06339	8.496412	2.730431	2.616786	0.102584	0.367713	0.344440	0.326160	-0.099529	0.940060	-0.276595	0.940873	0.195582	-0.903944	-0.323807	0.279346
06340	8.449196	2.714972	2.580149	0.139136	0.366336	0.378845	0.328374	-0.095202	0.939738	-0.279531	0.940547	0.192961	-0.902238	-0.326049	0.282239
06341	8.342325	2.652757	2.513569	0.180753	0.367872	0.415321	0.330519	-0.090087	0.939490	-0.282528	0.940342	0.189564	-0.900519	-0.328087	0.285349
06342	8.237348	2.684822	2.398027	0.220447	0.350688	0.450772	0.332361	-0.085115	0.939304	-0.286465	0.939760	0.186519	-0.898595	-0.331069	0.287957
06343	8.197774	2.700231	2.314035	0.253179	0.337176	0.487852	0.333978	-0.079406	0.939230	-0.290363	0.939321	0.182663	-0.896743	-0.333723	0.290656
06344	8.285323	2.682844	2.298522	0.283104	0.345452	0.527332	0.335503	-0.073714	0.939151	-0.295149	0.938514	0.179104	-0.894609	-0.337279	0.293118
06345	8.526962	2.649165	2.328229	0.314513	0.353231	0.558779	0.336994	-0.067270	0.939100	-0.299838	0.937844	0.174776	-0.892487	-0.340476	0.295878
06346	8.880601	2.543022	2.369671	0.358654	0.389640	0.588090	0.338660	-0.060844	0.938939	-0.305520	0.936724	0.170897	-0.889925	-0.344741	0.298642
06347	9.052203	2.405232	2.101323	0.407607	0.411445	0.622966	0.340392	-0.053581	0.938756	-0.311257	0.935668	0.166266	-0.887272	-0.348790	0.301817
06348	8.729713	2.338206	1.793467	0.484082	0.513789	0.660967	0.342820	-0.046025	0.938273	-0.318290	0.934030	0.162112	-0.883836	-0.354218	0.305555
06349	8.365374	2.244241	2.006323	0.554876	0.599658	0.695663	0.345866	-0.037389	0.937539	-0.325578	0.932340	0.157291	-0.879986	-0.359644	0.310292
06350	8.429174	2.107064	2.289345	0.635209	0.576254	0.720980	0.348483	-0.029027	0.936866	-0.334119	0.930014	0.153096	-0.875742	-0.366375	0.314395
06351	8.982411	2.118380	2.490455	0.727930	0.537045	0.752484	0.350623	-0.020049	0.936302	-0.343108	0.927508	0.148346	-0.871401	-0.373266	0.318327
06352	9.480414	2.240155	2.581731	0.824761	0.542926	0.792274	0.352505	-0.011109	0.935744	-0.353507	0.924260	0.144143	-0.866472	-0.381603	0.321879
06353	9.511324	2.369090	2.638940	0.914987	0.570072	0.846399	0.354388	-0.001098	0.935098	-0.364402	0.920781	0.139184	-0.861174	-0.390077	0.325913
06354	9.462791	2.413146	2.783651	0.984206	0.598559	0.899037	0.356104	0.009074	0.934402	-0.376479	0.916598	0.134577	-0.855250	-0.399707	0.329820
06355	9.531188	2.480529	2.866900	1.038887	0.566837	0.947782	0.357305	0.020035	0.933773	-0.388714	0.912259	0.129167	-0.849255	-0.409123	0.333743
06356	9.562425	2.520615	2.740525	1.092097	0.549782	1.000194	0.357904	0.030958	0.933245	-0.401974	0.907207	0.124065	-0.842806	-0.419544	0.337138
06357	9.508353	2.412592	2.739134	1.131927	0.610243	1.044786	0.358754	0.043002	0.932441	-0.415220	0.902015	0.118156	-0.835995	-0.429557	0.341457
06358	9.628990	2.292189	3.126983	1.175365	0.638860	1.089587	0.359361	0.055114	0.931570	-0.429364	0.896083	0.112616	-0.828557	-0.440453	0.345681
06359	10.003501	2.182480	3.448685	1.220276	0.614332	1.126064	0.359510	0.067909	0.930667	-0.443477	0.889951	0.106373	-0.821025	-0.450971	0.350062
06360	10.658145	2.075503	3.958718	1.257470	0.658593	1.159063	0.359548	0.080733	0.929628	-0.458379	0.883045	0.100598	-0.812782	-0.462291	0.354503
06361	10.948479	1.963102	4.225634	1.292317	0.627888	1.184658	0.359104	0.094089	0.928543	-0.473086	0.875966	0.094200	-0.804508	-0.473108	0.359075
06362	10.693685	1.897303	4.034974	1.313980	0.621745	1.213819	0.358125	0.107206	0.927498	-0.488428	0.868130	0.088247	-0.795729	-0.484620	0.363262
06363	10.318066	1.785428	4.411341	1.332813	0.671413	1.216133	0.357404	0.121006	0.926078	-0.503325	0.860212	0.081850	-0.786719	-0.495371	0.368348
06364	10.604162	1.667804	4.977545	1.316286	0.557447	1.197271	0.355528	0.133619	0.925065	-0.518380	0.851749	0.076199	-0.777742	-0.506626	0.372086
06365	11.199651	1.665021	4.926278	1.289049	0.422860	1.166087	0.352669	0.145667	0.924341	-0.532481	0.843523	0.070230	-0.769473	-0.516962	0.375049
06366	11.497236	1.526928	4.790271	1.263476	0.444928	1.135025	0.349833	0.157113	0.923543	-0.546650	0.834831	0.065046	-0.760783	-0.527610	0.377937
06367	11.254176	1.417839	4.993839	1.224560	0.447005	1.098120	0.347137	0.168614	0.922532	-0.559742	0.826524	0.059558	-0.752453	-0.537054	0.381297
06368	10.906675	1.291845	4.749362	1.163190	0.368718	1.062570	0.343762	0.178963	0.921846	-0.572638	0.817978	0.054742	-0.744253	-0.546702	0.383671
06369	10.385858	1.216989	4.234526	1.082042	0.321842	1.034435	0.340159	0.189155	0.921147	-0.584189	0.810115	0.049373	-0.736895	-0.554919	0.386070
06370	9.734469	1.049814	3.878749	0.988464	0.304069	1.010745	0.336306	0.198627	0.920568	-0.595376	0.802219	0.044413	-0.729675	-0.563020	0.388049
06371	9.122178	0.784929	3.512380	0.866664	0.267471	0.988257	0.332315	0.208033	0.919940	-0.604977	0.795302	0.038691	-0.723581	-0.569400	0.390146
06372	8.651312	0.397323	3.038769	0.756041	0.237670	0.959306	0.328051	0.216616	0.919489	-0.614097	0.788526	0.033331	-0.717821	-0.575590	0.391700
06373	8.348922	-0.063035	2.711846	0.655909	0.256729	0.920793	0.324195	0.225330	0.918762	-0.621792	0.782701	0.027445	-0.712932	-0.580176	0.393856
06374	8.086655	-0.448880	2.665897	0.578739	0.317602	0.862929	0.320911	0.233525	0.917868	-0.629140	0.776972	0.022286	-0.707954	-0.584620	0.396259
06375	8.053999	-0.806288	2.925436	0.523918	0.380700	0.786815	0.318621	0.241847	0.916510	-0.635353	0.772031	0.017155	-0.703426	-0.587774	0.399643
06376	8.319829	-1.096869	3.420748	0.492991	0.414598	0.698697	0.316913	0.249279	0.915110	-0.641408	0.767087	0.013169	-0.698686	-0.591133	0.402989
06377	8.670041	-1.151028	3.786782	0.462088	0.412146	0.614928	0.315821	0.256420	0.913513	-0.646572	0.762795	0.009420	-0.694407	-0.593627	0.406701
06378	8.678505	-1.155677	3.952568	0.428513	0.428602	0.568671	0.314940	0.262918	0.911969	-0.651635	0.758506	0.006362	-0.690061	-0.596274	0.410211
06379	8.389750	-1.307111	4.104155	0.380504	0.434459	0.538135	0.314410	0.269579	0.910205	-0.655947	0.754801	0.003029	-0.686207	-0.597998	0.414147
06380	8.048940	-1.536451	4.174223	0.347249	0.377883	0.503657	0.313528	0.275275	0.908804	-0.660143	0.751140	0.000224	-0.682577	-0.600010	0.417224
06381	7.902076	-1.815064	4.122178	0.315665	0.306492	0.468593	0.312512	0.280623	0.907517	-0.663759	0.747942	-0.002707	-0.679529	-0.601526	0.420007
06382	7.932349	-2.061519	4.024490	0.303924	0.234590	0.439505	0.311031	0.284979	0.906668	-0.667358	0.744719	-0.005140	-0.676678	-0.603474	0.421814
06383	8.011905	-2.293398	4.023799	0.314579	0.183365	0.415860	0.309486	0.289172	0.905869	-0.670772	0.741625	-0.007576	-0.674005	-0.605287	0.423491
06384	8.029886	-2.416371	3.970963	0.328094	0.140343	0.385347	0.307699	0.292555	0.905391	-0.674251	0.738442	-0.009464	-0.671348	-0.607548	0.424473
06385	8.081027	-2.470710	4.040608	0.348038	0.102659	0.353888	0.305993	0.295782	0.904921	-0.677668	0.735283	-0.011185	-0.668681	-0.609813	0.425433
06386	8.219050	-2.577471	4.087195	0.366091	0.056261	0.322275	0.304046	0.298187	0.904788	-0.681088	0.732097	-0.012400	-0.666090	-0.612470	0.425682
06387	8.346642	-2.662901	4.057244	0.386430	0.005271	0.284801	0.302135	0.300293	0.904731	-0.684519	0.728873	-0.013328	-0.663436	-0.615279	0.425774
06388	8.313774	-2.667567	3.895197	0.412165	-0.011731	0.256227	0.300171	0.301796	0.904885	-0.687926	0.725649	-0.013817	-0.660799	-0.618346	0.425432
06389	8.309028	-2.705331	3.855665	0.443691	-0.043152	0.218268	0.298380	0.303102	0.905041	-0.691504	0.722239	-0.013902	-0.657869	-0.621691	0.425098
06390	8.328496	-2.723530	3.741656	0.471887	-0.088563	0.176679	0.296448	0.303548	0.905526	-0.694950	0.718931	-0.013488	-0.655105	-0.625297	0.424076
06391	8.372905	-2.688180	3.577114	0.517418	-0.118242	0.135823	0.294727	0.303773	0.906012	-0.698732	0.715274	-0.012523	-0.651850	-0.629369	0.423067
06392	8.380880	-2.610734	3.530854	0.558250	-0.137672	0.096226	0.293030	0.303324	0.906713	-0.702389	0.711707	-0.011091	-0.648678	-0.633615	0.421603
06393	8.447667	-2.446012	3.483340	0.600884	-0.163970	0.055684	0.291576	0.302669	0.907400	-0.706438	0.707717	-0.009063	-0.644925	-0.638379	0.420171
06394	8.498982	-2.222019	3.503669	0.630380	-0.178587	0.011364	0.290214	0.301346	0.908276	-0.710203	0.703965	-0.006635	-0.641395	-0.643135	0.418318
06395	8.570017	-2.049558	3.425715	0.659490	-0.191984	-0.031636	0.289211	0.299877	0.909082	-0.714327	0.699802	-0.003590	-0.637255	-0.648344	0.416601
06396	8.589377	-1.814247	3.438311	0.680836	-0.192592	-0.077234	0.288399	0.297831	0.910012	-0.718061	0.695980	-0.000216	-0.633415	-0.653382	0.414581
06397	8.713265	-1.581880	3.428561	0.691926	-0.180337	-0.114986	0.288088	0.295843	0.910759	-0.722096	0.691783	0.003698	-0.628953	-0.658721	0.412921
06398	8.801829	-1.304965	3.485948	0.694729	-0.175220	-0.156406	0.287970	0.293356	0.911600	-0.725603	0.688069	0.007791	-0.624959	-0.663704	0.411004
06399	8.873193	-1.042896	3.492791	0.691272	-0.143759	-0.196270	0.288501	0.291044	0.912173	-0.729341	0.684037	0.012422	-0.620346	-0.668869	0.409616
06400	8.933902	-0.873523	3.603571	0.678525	-0.110498	-0.229516	0.289334	0.288491	0.912720	-0.732464	0.680591	0.017072	-0.616265	-0.673475	0.408228
06401	8.926653	-0.740666	3.593470	0.660321	-0.078479	-0.261877	0.290773	0.286175	0.912992	-0.735758	0.676882	0.022160	-0.611646	-0.678185	0.407375
06402	8.832501	-0.546529	3.626041	0.638315	-0.038675	-0.284161	0.292461	0.283752	0.913209	-0.738412	0.673804	0.027117	-0.607630	-0.682256	0.406588
06403	8.663904	-0.455774	3.618278	0.611342	0.005361	-0.311699	0.294797	0.281685	0.913098	-0.741197	0.670502	0.032453	-0.603093	-0.686353	0.406447
06404	8.459117	-0.324438	3.656537	0.582858	0.031141	-0.336396	0.297304	0.279411	0.912984	-0.743304	0.667893	0.037647	-0.599257	-0.689817	0.406255
06405	8.338751	-0.252431	3.655143	0.558649	0.046528	-0.364148	0.300291	0.277297	0.912651	-0.745552	0.665043	0.043245	-0.594961	-0.693415	0.406446
06406	8.287555	-0.148849	3.653740	0.526368	0.072175	-0.370401	0.303301	0.275110	0.912317	-0.747168	0.662862	0.048511	-0.591395	-0.696368	0.406600
06407	8.179896	-0.090505	3.705239	0.500369	0.085388	-0.380665	0.306649	0.273178	0.911778	-0.748956	0.660414	0.054023	-0.587393	-0.699448	0.407114
06408	8.090955	-0.095947	3.667012	0.477461	0.094844	-0.390706	0.309948	0.271043	0.911300	-0.750175	0.658578	0.059270	-0.584097	-0.702005	0.407455
06409	8.070084	-0.063714	3.676389	0.458208	0.094639	-0.396629	0.313475	0.269092	0.910672	-0.751606	0.656426	0.064755	-0.580363	-0.704766	0.408024
06410	8.068265	0.015924	3.656118	0.442146	0.106368	-0.394879	0.316871	0.267039	0.910100	-0.752562	0.654803	0.069890	-0.577273	-0.707053	0.408452
06411	8.081137	0.117639	3.683116	0.413655	0.116378	-0.391379	0.320486	0.265295	0.909345	-0.753695	0.652915	0.075146	-0.573789	-0.709451	0.409201
06412	8.095016	0.211572	3.662296	0.391407	0.133478	-0.381050	0.323931	0.263551	0.908631	-0.754362	0.651573	0.079944	-0.570970	-0.711333	0.409877
06413	8.017672	0.262342	3.718055	0.345802	0.152380	-0.366303	0.327560	0.262242	0.907708	-0.755137	0.650073	0.084693	-0.567866	-0.713186	0.410967
06414	8.060116	0.293140	3.782850	0.315047	0.159292	-0.349051	0.330906	0.260912	0.906877	-0.755444	0.649157	0.088885	-0.565514	-0.714507	0.411914
06415	8.154035	0.372695	3.843516	0.275294	0.166178	-0.316031	0.334228	0.260041	0.905909	-0.755945	0.648011	0.092889	-0.562884	-0.715864	0.413160
06416	8.179570	0.445009	3.877177	0.227387	0.172473	-0.289455	0.337192	0.259210	0.905048	-0.755936	0.647542	0.096178	-0.561126	-0.716589	0.414292
06417	8.165111	0.459555	4.015778	0.182507	0.166898	-0.263287	0.340113	0.258692	0.904103	-0.756066	0.646915	0.099320	-0.559184	-0.717342	0.415612
06418	8.275339	0.512538	4.080286	0.137478	0.151556	-0.243658	0.342608	0.258022	0.903352	-0.755701	0.646954	0.101821	-0.558154	-0.717548	0.416639
06419	8.359841	0.539981	3.997804	0.078368	0.142927	-0.226578	0.345112	0.257571	0.902527	-0.755358	0.646975	0.104197	-0.557074	-0.717691	0.417838
06420	8.420300	0.496993	4.049335	0.026412	0.173264	-0.211648	0.347482	0.257274	0.901702	-0.754483	0.647712	0.105944	-0.556787	-0.717133	0.419177
06421	8.653757	0.410166	4.392457	-0.030306	0.181421	-0.207333	0.350050	0.257220	0.900723	-0.753591	0.648462	0.107688	-0.556386	-0.716474	0.420833
06422	9.129023	0.299998	4.458715	-0.070750	0.171439	-0.218420	0.352456	0.256870	0.899885	-0.752150	0.649901	0.109080	-0.556817	-0.715294	0.422267
06423	9.479711	0.212789	4.566203	-0.107868	0.217175	-0.231599	0.355400	0.256904	0.898716	-0.750729	0.651267	0.110709	-0.556862	-0.714039	0.424326
06424	9.590134	0.167128	4.855706	-0.133904	0.284063	-0.245264	0.358627	0.257180	0.897355	-0.748831	0.653219	0.112058	-0.557350	-0.712154	0.426846
06425	9.723017	0.219407	4.988515	-0.172954	0.300289	-0.256613	0.362214	0.257626	0.895785	-0.746942	0.655110	0.113621	-0.557565	-0.710254	0.429721
06426	9.887291	0.206762	5.162112	-0.216626	0.345798	-0.257095	0.365864	0.258251	0.894120	-0.744522	0.657673	0.114692	-0.558419	-0.707653	0.432892
06427	9.967828	0.195843	5.259831	-0.262801	0.386505	-0.256189	0.369921	0.259282	0.892150	-0.742111	0.660191	0.115840	-0.558954	-0.704926	0.436635
06428	9.808330	0.102815	5.329047	-0.295410	0.437854	-0.259446	0.374094	0.260518	0.890047	-0.739219	0.663304	0.116550	-0.560008	-0.701540	0.440718
06429	9.797884	0.078859	5.627543	-0.321553	0.476282	-0.282341	0.378839	0.261963	0.887612	-0.736354	0.666291	0.117637	-0.560592	-0.698163	0.445315
06430	10.169689	0.166266	6.024133	-0.328793	0.477481	-0.319337	0.383667	0.263044	0.885216	-0.733018	0.669776	0.118676	-0.561680	-0.694412	0.449787
06431	10.599358	0.224021	6.161653	-0.336671	0.446418	-0.357177	0.388781	0.263727	0.882778	-0.729746	0.673049	0.120314	-0.562423	-0.690980	0.454123
06432	10.519957	0.348528	5.969282	-0.330232	0.466432	-0.377596	0.393959	0.264300	0.880308	-0.726138	0.676674	0.121803	-0.563489	-0.687211	0.458500
06433	10.047833	0.381672	6.244142	-0.313472	0.524398	-0.396276	0.399777	0.265195	0.877411	-0.722799	0.679871	0.123842	-0.563684	-0.683701	0.463480
06434	10.135713	0.500299	6.891203	-0.294227	0.457852	-0.428378	0.405252	0.265320	0.874858	-0.719150	0.683357	0.125882	-0.564441	-0.680168	0.467737
06435	10.997827	0.741911	7.239373	-0.276529	0.346630	-0.465050	0.410538	0.264477	0.872646	-0.715692	0.686466	0.128648	-0.565017	-0.677360	0.471104
06436	11.431467	1.083552	6.902475	-0.258683	0.281282	-0.486140	0.415408	0.262981	0.870791	-0.711966	0.689827	0.131312	-0.566163	-0.674522	0.473793
06437	10.601064	1.444531	6.206261	-0.265004	0.315500	-0.474257	0.420554	0.261815	0.868670	-0.708483	0.692855	0.134178	-0.566732	-0.671867	0.476874
06438	8.937226	1.555632	5.622389	-0.278487	0.311898	-0.460668	0.425388	0.260666	0.866659	-0.704716	0.696237	0.136493	-0.567821	-0.668811	0.479866
06439	7.734139	1.679214	5.007635	-0.309373	0.159527	-0.456243	0.429493	0.258536	0.865272	-0.701007	0.699486	0.138957	-0.569320	-0.666242	0.481660
06440	7.237364	1.810251	4.101131	-0.345361	0.019500	-0.451794	0.432577	0.255470	0.864646	-0.696871	0.703227	0.140864	-0.572055	-0.663481	0.482230
06441	6.759966	1.891595	3.369395	-0.376681	-0.015881	-0.442664	0.435552	0.252233	0.864102	-0.692791	0.706844	0.142873	-0.574748	-0.660871	0.482612
06442	6.209881	1.958880	3.074420	-0.400248	-0.009201	-0.434940	0.438320	0.249063	0.863622	-0.688388	0.710827	0.144385	-0.577925	-0.657794	0.483021
06443	5.991290	1.958713	3.101797	-0.420592	-0.070891	-0.441754	0.440930	0.245438	0.863331	-0.684009	0.714679	0.146167	-0.581130	-0.654976	0.483005
06444	6.366223	2.000730	3.251950	-0.430295	-0.149234	-0.457826	0.443000	0.241152	0.863479	-0.679302	0.718830	0.147755	-0.585063	-0.652019	0.482257
06445	7.149105	2.120985	3.446090	-0.428729	-0.206196	-0.471059	0.444968	0.236404	0.863780	-0.674695	0.722744	0.149758	-0.588889	-0.649426	0.481099
06446	7.755832	2.266113	3.635456	-0.415138	-0.217878	-0.478226	0.446716	0.231493	0.864208	-0.669955	0.726752	0.151632	-0.592963	-0.646717	0.479742
06447	7.875886	2.439793	3.633508	-0.414300	-0.232885	-0.473758	0.448482	0.226527	0.864609	-0.665370	0.730511	0.153741	-0.596780	-0.644236	0.478346
06448	7.683249	2.549680	3.667934	-0.402572	-0.268872	-0.460294	0.449745	0.221385	0.865285	-0.660754	0.734306	0.155563	-0.600944	-0.641704	0.476531
06449	7.557360	2.640322	3.610255	-0.391630	-0.342382	-0.447860	0.450618	0.215885	0.866220	-0.656377	0.737793	0.157578	-0.605073	-0.639574	0.474164
06450	7.699945	2.739550	3.505600	-0.382804	-0.434526	-0.432128	0.450630	0.209863	0.867692	-0.651982	0.741310	0.159307	-0.609796	-0.637509	0.470884
06451	8.004650	2.896968	3.459996	-0.371872	-0.484911	-0.399370	0.450245	0.203799	0.869336	-0.647908	0.744503	0.161029	-0.614405	-0.635753	0.467252
06452	8.220137	3.061610	3.423838	-0.370801	-0.503283	-0.359472	0.449290	0.197858	0.871201	-0.643897	0.747710	0.162255	-0.619302	-0.633863	0.463339
06453	8.382689	3.136645	3.506391	-0.368466	-0.504970	-0.304777	0.448095	0.192368	0.873044	-0.640240	0.750636	0.163211	-0.623941	-0.632092	0.459518
06454	8.638431	3.290234	3.618802	-0.381760	-0.507116	-0.254517	0.446376	0.187172	0.875052	-0.636616	0.753640	0.163544	-0.628863	-0.630074	0.455564
06455	8.881218	3.395361	3.582848	-0.401917	-0.507021	-0.193244	0.444389	0.182513	0.877045	-0.633219	0.756525	0.163412	-0.633681	-0.627980	0.451762
06456	9.019285	3.392549	3.516228	-0.423571	-0.467767	-0.122876	0.442028	0.178549	0.879052	-0.629895	0.759496	0.162475	-0.638626	-0.625529	0.448186
06457	9.049711	3.338025	3.565995	-0.450753	-0.445006	-0.057335	0.439521	0.175325	0.880955	-0.626755	0.762410	0.160964	-0.643428	-0.622890	0.444981
06458	8.958251	3.255073	3.460021	-0.469633	-0.441107	0.006329	0.436478	0.172509	0.883022	-0.623670	0.765398	0.158750	-0.648477	-0.620005	0.441668
06459	9.001486	3.119203	3.514063	-0.478878	-0.417719	0.061471	0.433362	0.170387	0.884967	-0.620822	0.768254	0.156097	-0.653282	-0.617053	0.438712
06460	9.142915	2.991944	3.649401	-0.488736	-0.398742	0.112059	0.429905	0.168650	0.886983	-0.618025	0.771142	0.152921	-0.658200	-0.613920	0.435748
06461	9.330780	2.862531	3.640042	-0.490599	-0.395020	0.154904	0.426325	0.167418	0.888942	-0.615449	0.773885	0.149413	-0.662925	-0.610797	0.432964
06462	9.301792	2.804633	3.591798	-0.489021	-0.343490	0.194995	0.422700	0.166673	0.890811	-0.612949	0.776601	0.145547	-0.667547	-0.607545	0.430431
06463	9.037876	2.731181	3.680124	-0.498227	-0.289476	0.233707	0.419316	0.166727	0.892399	-0.610598	0.779230	0.141321	-0.671822	-0.604155	0.428547
06464	8.780930	2.585719	3.797379	-0.510396	-0.267456	0.264013	0.415768	0.166996	0.894007	-0.608185	0.781922	0.136784	-0.676202	-0.600592	0.426662
06465	8.665189	2.455478	3.851790	-0.527377	-0.257355	0.284972	0.412277	0.167677	0.895496	-0.605788	0.784602	0.131986	-0.680476	-0.596896	0.425050
06466	8.613392	2.365483	3.911861	-0.542400	-0.238730	0.301684	0.408696	0.168435	0.896993	-0.603248	0.787376	0.127006	-0.684879	-0.593017	0.423406
06467	8.445707	2.243193	3.918163	-0.564823	-0.206169	0.320929	0.405332	0.169737	0.898273	-0.600675	0.790171	0.121735	-0.689126	-0.588914	0.422239
06468	8.286816	2.135631	4.025736	-0.586704	-0.185056	0.333231	0.401940	0.171088	0.899540	-0.597888	0.793096	0.116310	-0.693523	-0.584574	0.421069
06469	8.151643	1.977473	4.109146	-0.617975	-0.188998	0.336841	0.398600	0.172654	0.900727	-0.594938	0.796115	0.110677	-0.697973	-0.579993	0.420050
06470	8.115510	1.746027	4.095632	-0.633994	-0.187560	0.326101	0.395248	0.173967	0.901950	-0.591717	0.799260	0.105139	-0.702602	-0.575255	0.418845
06471	7.982843	1.630318	4.008443	-0.635427	-0.172053	0.324101	0.392106	0.175566	0.903011	-0.588516	0.802333	0.099554	-0.707038	-0.570472	0.417923
06472	7.803127	1.576394	4.020898	-0.641079	-0.161897	0.321903	0.388977	0.177029	0.904078	-0.585150	0.805454	0.094042	-0.711545	-0.565601	0.416891
06473	7.523805	1.556877	3.883903	-0.646881	-0.187660	0.331024	0.385689	0.178633	0.905171	-0.581816	0.808507	0.088352	-0.716055	-0.560719	0.415764
06474	7.332329	1.531035	3.749703	-0.646121	-0.200601	0.332671	0.382238	0.180002	0.906363	-0.578376	0.811563	0.082742	-0.720677	-0.555845	0.414319
06475	7.250595	1.369446	3.755345	-0.625340	-0.235373	0.325434	0.378643	0.181334	0.907606	-0.575094	0.814436	0.077203	-0.725187	-0.551191	0.412664
06476	7.365678	1.368112	3.727869	-0.599360	-0.281042	0.312951	0.374736	0.182138	0.909065	-0.571837	0.817202	0.071991	-0.729778	-0.546814	0.410388
06477	7.543253	1.437871	3.754547	-0.569143	-0.302186	0.307213	0.370754	0.182995	0.910524	-0.568817	0.819741	0.066865	-0.734158	-0.542713	0.408013
06478	7.581658	1.571832	3.707342	-0.556986	-0.318538	0.314229	0.366570	0.183644	0.912086	-0.565797	0.822222	0.061845	-0.738580	-0.538726	0.405307
06479	7.593218	1.636945	3.627886	-0.551527	-0.342026	0.327748	0.362169	0.184496	0.913671	-0.562907	0.824578	0.056625	-0.742946	-0.534820	0.402491
06480	7.567167	1.551476	3.457867	-0.562187	-0.351615	0.343263	0.357579	0.185241	0.915327	-0.559873	0.826985	0.051356	-0.747448	-0.530830	0.399424
06481	7.660185	1.407444	3.431622	-0.553869	-0.330161	0.357014	0.353093	0.186441	0.916823	-0.556991	0.829250	0.045880	-0.751722	-0.526863	0.396648
06482	7.785074	1.259404	3.454313	-0.540977	-0.311927	0.356671	0.348729	0.187541	0.918268	-0.554080	0.831472	0.040608	-0.755899	-0.522956	0.393871
06483	7.960745	1.143163	3.383073	-0.512520	-0.279200	0.344255	0.344693	0.188940	0.919505	-0.551391	0.833494	0.035432	-0.759707	-0.519220	0.391479
06484	8.056258	1.106150	3.493758	-0.474393	-0.224778	0.332967	0.341128	0.190324	0.920548	-0.548831	0.835371	0.030667	-0.763162	-0.515687	0.389424
06485	8.234155	1.125444	3.615056	-0.434890	-0.200840	0.319537	0.337824	0.191952	0.921428	-0.546592	0.836995	0.026035	-0.766233	-0.512440	0.387676
06486	8.532115	1.170607	3.717772	-0.411196	-0.183957	0.311594	0.334700	0.193383	0.922268	-0.544387	0.838552	0.021734	-0.769167	-0.509345	0.385939
06487	8.845221	1.218630	3.921198	-0.383834	-0.150833	0.316239	0.331801	0.195260	0.922920	-0.542485	0.839886	0.017337	-0.771763	-0.506423	0.384600
06488	9.141780	1.246027	4.123788	-0.360284	-0.125333	0.318068	0.329109	0.197053	0.923503	-0.540650	0.841144	0.013192	-0.774199	-0.503634	0.383365
06489	9.355278	1.281360	4.105952	-0.347409	-0.118604	0.331525	0.326382	0.199236	0.924002	-0.539044	0.842231	0.008800	-0.776470	-0.500951	0.382286
06490	9.429196	1.295617	4.185018	-0.330479	-0.069397	0.345745	0.323995	0.201546	0.924341	-0.537492	0.843257	0.004532	-0.778543	-0.498294	0.381541
06491	9.385392	1.184863	4.247478	-0.320629	-0.048930	0.361493	0.321655	0.204341	0.924545	-0.536161	0.844116	-0.000031	-0.780429	-0.495695	0.381073
06492	9.546284	1.104987	4.366947	-0.315239	-0.044372	0.379652	0.319304	0.207061	0.924754	-0.534800	0.844967	-0.004538	-0.782326	-0.493109	0.380538
06493	9.896534	0.952180	4.625413	-0.306790	-0.040873	0.395355	0.316854	0.210190	0.924891	-0.533656	0.845650	-0.009359	-0.784102	-0.490608	0.380116
06494	10.501440	0.856322	5.068767	-0.290144	-0.040546	0.423444	0.314323	0.213300	0.925043	-0.532594	0.846253	-0.014161	-0.785840	-0.488221	0.379599
06495	11.381085	0.688297	5.701772	-0.289763	-0.042221	0.455378	0.311549	0.216937	0.925135	-0.531741	0.846683	-0.019471	-0.787521	-0.485866	0.379138
06496	11.961652	0.557376	5.564820	-0.298315	-0.152869	0.505373	0.307722	0.220201	0.925645	-0.530829	0.847109	-0.025049	-0.789637	-0.483651	0.377564
06497	11.395999	0.344901	4.653020	-0.306059	-0.156516	0.570468	0.303440	0.224266	0.926083	-0.530154	0.847317	-0.031482	-0.791746	-0.481413	0.376005
06498	10.653264	-0.072797	5.271232	-0.298537	-0.032592	0.604240	0.300056	0.228952	0.926039	-0.529481	0.847472	-0.037964	-0.793484	-0.478928	0.375515
06499	11.637149	-0.297571	6.325288	-0.337293	-0.341879	0.608378	0.294101	0.232461	0.927074	-0.528608	0.847680	-0.044859	-0.796290	-0.476866	0.372184
06500	12.792605	-0.451220	4.844625	-0.402611	-0.697156	0.642558	0.285235	0.234324	0.929372	-0.527128	0.848189	-0.052074	-0.800485	-0.475045	0.365452
06501	12.046404	-0.898469	3.285358	-0.423490	-0.533037	0.680374	0.277358	0.237557	0.930935	-0.525646	0.848590	-0.059936	-0.804220	-0.472718	0.360234
06502	10.105995	-1.457137	2.995716	-0.439789	-0.387492	0.684528	0.270728	0.241271	0.931931	-0.523842	0.849125	-0.067656	-0.807649	-0.469868	0.356270
06503	9.293571	-2.078920	2.614794	-0.481147	-0.623533	0.644909	0.262289	0.243814	0.933681	-0.521666	0.849814	-0.075368	-0.811831	-0.467301	0.350086
06504	9.782115	-2.500837	1.541595	-0.474298	-0.789885	0.593331	0.252837	0.244918	0.935996	-0.519197	0.850679	-0.082345	-0.816400	-0.465146	0.342243
06505	9.906347	-2.619897	0.572699	-0.445860	-0.664897	0.552905	0.244512	0.246523	0.937785	-0.516924	0.851389	-0.089032	-0.820368	-0.462994	0.335609
06506	9.193509	-2.735203	0.312704	-0.413975	-0.404025	0.517658	0.238546	0.248816	0.938715	-0.514632	0.852123	-0.095086	-0.823559	-0.460410	0.331319
06507	8.401378	-2.741508	0.648247	-0.408276	-0.279003	0.476176	0.233781	0.251580	0.939177	-0.512390	0.852805	-0.100899	-0.826319	-0.457636	0.328276
06508	8.304867	-2.758201	1.019579	-0.422353	-0.310631	0.438016	0.228952	0.253659	0.939807	-0.509765	0.853729	-0.106239	-0.829289	-0.454757	0.324769
06509	8.917578	-2.736797	1.224714	-0.430265	-0.357649	0.383515	0.224012	0.255299	0.940554	-0.507060	0.854703	-0.111229	-0.832291	-0.452001	0.320916
06510	9.333305	-2.706627	1.209275	-0.442469	-0.313772	0.334960	0.219648	0.256524	0.941249	-0.503976	0.855938	-0.115666	-0.835322	-0.448961	0.317287
06511	8.994045	-2.901131	1.296930	-0.452401	-0.221228	0.269768	0.216422	0.257830	0.941640	-0.500781	0.857267	-0.119631	-0.838081	-0.445664	0.314648
06512	8.439102	-3.038918	1.483986	-0.447641	-0.214365	0.195530	0.213558	0.258343	0.942153	-0.497311	0.858841	-0.122773	-0.840877	-0.442324	0.311889
06513	8.123695	-3.158552	1.537745	-0.448377	-0.284281	0.103640	0.210630	0.257966	0.942915	-0.493756	0.860550	-0.125136	-0.843706	-0.439212	0.308630
06514	8.241758	-3.171966	1.391433	-0.448862	-0.357884	0.001629	0.207475	0.256225	0.944088	-0.489847	0.862588	-0.126456	-0.846761	-0.436223	0.304476
06515	8.368287	-3.205267	1.358873	-0.461426	-0.368637	-0.108015	0.204854	0.253674	0.945349	-0.485713	0.864869	-0.126826	-0.849775	-0.433187	0.300385
06516	8.442543	-3.193408	1.488853	-0.464447	-0.339607	-0.225823	0.202898	0.250087	0.946725	-0.481198	0.867505	-0.126033	-0.852808	-0.429990	0.296356
06517	8.590590	-3.096265	1.787803	-0.467458	-0.327789	-0.349046	0.201748	0.245635	0.948136	-0.476500	0.870372	-0.124097	-0.855713	-0.426750	0.292641
06518	8.828408	-2.875750	1.960413	-0.483911	-0.335704	-0.464743	0.200884	0.240015	0.949757	-0.471336	0.873603	-0.121078	-0.858771	-0.423332	0.288621
06519	8.897983	-2.636248	1.944344	-0.505984	-0.313970	-0.555739	0.200766	0.233812	0.951328	-0.465869	0.877052	-0.117241	-0.861777	-0.419657	0.285008
06520	8.898431	-2.517914	2.028644	-0.527540	-0.268528	-0.626837	0.201136	0.227063	0.952883	-0.459997	0.880730	-0.112773	-0.864840	-0.415641	0.281595
06521	9.063710	-2.542788	2.088168	-0.534721	-0.261802	-0.678540	0.201947	0.219976	0.954373	-0.453999	0.884458	-0.107794	-0.867815	-0.411516	0.278482
06522	9.352429	-2.549625	2.141590	-0.514736	-0.248450	-0.727130	0.202833	0.212416	0.955897	-0.448016	0.888154	-0.102297	-0.870713	-0.407508	0.275312
06523	9.551676	-2.469471	2.124643	-0.471357	-0.219314	-0.754636	0.204257	0.204795	0.957255	-0.442372	0.891639	-0.096365	-0.873262	-0.403780	0.272720
06524	9.613420	-2.267208	2.106198	-0.418003	-0.191967	-0.772787	0.205724	0.197043	0.958568	-0.437121	0.894875	-0.090138	-0.875559	-0.400467	0.270229
06525	9.518336	-2.043871	2.111184	-0.370492	-0.186305	-0.767079	0.207402	0.189409	0.959744	-0.432291	0.897834	-0.083772	-0.877558	-0.397514	0.268092
06526	9.554543	-1.775669	2.068705	-0.338068	-0.196636	-0.760800	0.208676	0.181730	0.960952	-0.427750	0.900575	-0.077424	-0.879479	-0.394891	0.265663
06527	9.696659	-1.528721	1.907706	-0.303184	-0.203478	-0.733195	0.209981	0.174302	0.962043	-0.423549	0.903073	-0.071171	-0.881201	-0.392527	0.263454
06528	9.808869	-1.343007	1.835678	-0.272622	-0.167191	-0.703375	0.211189	0.167240	0.963032	-0.419694	0.905322	-0.065181	-0.882755	-0.390413	0.261384
06529	9.836353	-1.190605	1.818695	-0.250709	-0.118676	-0.666497	0.212901	0.160722	0.963764	-0.416069	0.907391	-0.059409	-0.884059	-0.388344	0.260056
06530	9.789774	-1.035852	1.790402	-0.228004	-0.085560	-0.622463	0.214429	0.154697	0.964411	-0.412769	0.909229	-0.054070	-0.885235	-0.386485	0.258819
06531	9.654641	-0.904656	1.770211	-0.212374	-0.046005	-0.578157	0.216374	0.149243	0.964836	-0.409645	0.910926	-0.049037	-0.886213	-0.384630	0.258237
06532	9.510936	-0.857598	1.832884	-0.199177	-0.015572	-0.546700	0.218162	0.144163	0.965206	-0.406753	0.912461	-0.044349	-0.887106	-0.382925	0.257703
06533	9.478821	-0.837927	1.800081	-0.191579	-0.008372	-0.509496	0.220127	0.139464	0.965450	-0.403938	0.913915	-0.039920	-0.887907	-0.381195	0.257512
06534	9.461065	-0.829805	1.737383	-0.175167	-0.012101	-0.478424	0.221632	0.135012	0.965739	-0.401401	0.915201	-0.035827	-0.888682	-0.379708	0.257032
06535	9.433785	-0.831023	1.752477	-0.163932	0.020138	-0.445623	0.223568	0.130993	0.965846	-0.398954	0.916414	-0.031941	-0.889299	-0.378187	0.257141
06536	9.382965	-0.804471	1.730775	-0.153086	0.036889	-0.427822	0.225276	0.127185	0.965958	-0.396723	0.917502	-0.028283	-0.889866	-0.376846	0.257148
06537	9.391994	-0.815373	1.769255	-0.145460	0.051534	-0.411132	0.227334	0.123590	0.965943	-0.394500	0.918564	-0.024682	-0.890331	-0.375453	0.257577
06538	9.429386	-0.810241	1.760008	-0.134744	0.077815	-0.402674	0.229279	0.120164	0.965915	-0.392488	0.919512	-0.021226	-0.890721	-0.374243	0.257988
06539	9.481228	-0.813310	1.723196	-0.126861	0.104819	-0.391440	0.231718	0.116940	0.965729	-0.390458	0.920449	-0.017770	-0.890982	-0.372959	0.258944
06540	9.407656	-0.826580	1.650410	-0.119476	0.151642	-0.386845	0.234235	0.113934	0.965481	-0.388617	0.921286	-0.014437	-0.891129	-0.371821	0.260074
06541	9.308742	-0.778250	1.553700	-0.117231	0.201330	-0.371843	0.237442	0.111239	0.965012	-0.386698	0.922139	-0.011150	-0.891115	-0.370520	0.261970
06542	9.192796	-0.749305	1.457539	-0.119132	0.252067	-0.362009	0.240732	0.108834	0.964470	-0.384914	0.922917	-0.008070	-0.891005	-0.369296	0.264067
06543	9.063147	-0.664092	1.464480	-0.131345	0.325671	-0.354761	0.244966	0.106744	0.963638	-0.382885	0.923783	-0.004996	-0.890725	-0.367739	0.267166
06544	8.907826	-0.575816	1.402873	-0.143911	0.368838	-0.346865	0.249211	0.104902	0.962751	-0.380909	0.924610	-0.002146	-0.890394	-0.366186	0.270381
06545	8.612572	-0.469249	1.368176	-0.163496	0.446728	-0.335570	0.254432	0.103415	0.961545	-0.378611	0.925556	0.000639	-0.889898	-0.364214	0.274645
06546	8.454242	-0.291372	1.630829	-0.190290	0.509622	-0.324206	0.259814	0.102281	0.960227	-0.376264	0.926507	0.003119	-0.889338	-0.362109	0.279204
06547	8.605548	-0.002680	2.055269	-0.243347	0.518395	-0.308124	0.265547	0.101280	0.958763	-0.373294	0.927698	0.005392	-0.888896	-0.359332	0.284155
06548	8.865554	0.226310	2.297231	-0.318737	0.513122	-0.284678	0.270787	0.100495	0.957379	-0.369888	0.929049	0.007099	-0.888739	-0.356045	0.288746
06549	9.225836	0.339891	2.624771	-0.403379	0.512737	-0.257295	0.276259	0.099903	0.955877	-0.365601	0.930734	0.008387	-0.888829	-0.351787	0.293649
06550	9.404934	0.321934	2.642732	-0.501009	0.451100	-0.234236	0.280746	0.099319	0.954630	-0.360688	0.932643	0.009043	-0.889430	-0.346862	0.297658
06551	9.332876	0.216756	2.314779	-0.575928	0.428528	-0.217204	0.285304	0.098751	0.953336	-0.354950	0.934838	0.009391	-0.890288	-0.341066	0.301765
06552	9.315503	0.064857	2.589266	-0.642212	0.489557	-0.220652	0.290067	0.098361	0.951938	-0.348791	0.937153	0.009447	-0.891182	-0.334768	0.306145
06553	9.856721	0.116045	3.098543	-0.704856	0.429670	-0.225953	0.294646	0.097651	0.950604	-0.341847	0.939708	0.009426	-0.892370	-0.327739	0.310264
06554	10.505279	0.094397	3.076891	-0.790002	0.351989	-0.223936	0.298176	0.096709	0.949599	-0.334329	0.942413	0.009003	-0.894044	-0.320163	0.313338
06555	10.780830	-0.172617	2.968486	-0.839824	0.412356	-0.218854	0.302555	0.095934	0.948292	-0.326159	0.945277	0.008433	-0.895590	-0.311845	0.317288
06556	10.707613	-0.323655	3.329174	-0.865227	0.486587	-0.236644	0.307305	0.095221	0.946835	-0.317893	0.948094	0.007828	-0.896943	-0.303398	0.321624
06557	10.879963	-0.349465	3.854213	-0.887554	0.445947	-0.261890	0.312095	0.094056	0.945384	-0.309118	0.950995	0.007433	-0.898356	-0.294555	0.325875
06558	11.523842	-0.172868	4.055635	-0.896955	0.350688	-0.285875	0.315748	0.092394	0.944334	-0.300379	0.953794	0.007115	-0.900042	-0.285904	0.328912
06559	11.781310	-0.011989	3.745028	-0.926141	0.313762	-0.311374	0.319461	0.090292	0.943288	-0.291048	0.956683	0.006995	-0.901796	-0.276777	0.331902
06560	11.472750	-0.024981	3.694268	-0.931594	0.429106	-0.335583	0.323926	0.088295	0.941953	-0.281794	0.959450	0.006970	-0.903141	-0.267695	0.335672
06561	11.817480	0.023767	5.079067	-0.911768	0.488276	-0.377392	0.329348	0.085944	0.940289	-0.272325	0.962177	0.007441	-0.904085	-0.258515	0.340295
06562	12.952415	0.478623	5.821657	-0.937204	0.229388	-0.398742	0.332130	0.082742	0.939597	-0.262762	0.964828	0.007918	-0.905895	-0.249520	0.342190
06563	13.297509	0.740232	4.407986	-0.987754	0.011093	-0.384836	0.333186	0.079042	0.939542	-0.252524	0.967556	0.008153	-0.908416	-0.239974	0.342336
06564	11.404406	0.392282	2.564370	-0.989810	0.197792	-0.369781	0.335552	0.075976	0.938953	-0.242517	0.970113	0.008171	-0.910270	-0.230453	0.343948
06565	8.914206	0.093190	2.407820	-0.902133	0.385360	-0.418830	0.340019	0.072770	0.937599	-0.232889	0.972462	0.008981	-0.911126	-0.221410	0.347603
06566	8.007256	0.385527	2.485162	-0.844653	0.115180	-0.494995	0.341844	0.068253	0.937275	-0.223736	0.974592	0.010631	-0.912735	-0.213336	0.348429
06567	8.899774	0.910607	1.699266	-0.799131	-0.115683	-0.550685	0.341955	0.062631	0.937627	-0.214553	0.976626	0.013013	-0.914895	-0.205621	0.347400
06568	9.726556	1.577869	1.202258	-0.743857	0.053642	-0.565065	0.343275	0.057257	0.937488	-0.206043	0.978417	0.015689	-0.916356	-0.198548	0.347664
06569	9.589445	2.291184	1.647974	-0.706198	0.357265	-0.556078	0.347633	0.052502	0.936160	-0.197653	0.980099	0.018430	-0.916561	-0.191441	0.351092
06570	9.165855	2.994426	2.498963	-0.724320	0.425904	-0.529279	0.352190	0.048121	0.934691	-0.189379	0.981683	0.020817	-0.916568	-0.184343	0.354852
06571	9.148026	3.503875	2.845213	-0.798704	0.319911	-0.480080	0.355970	0.043975	0.933462	-0.180360	0.983344	0.022454	-0.916927	-0.176352	0.357973
06572	9.300780	3.824450	2.750678	-0.870282	0.272768	-0.400837	0.358814	0.040453	0.932532	-0.171104	0.984982	0.023108	-0.917593	-0.167851	0.360347
06573	9.001386	4.005867	2.760410	-0.961807	0.307782	-0.325658	0.362139	0.037740	0.931360	-0.161105	0.986677	0.022661	-0.918096	-0.158253	0.363395
06574	8.469740	4.074201	2.930517	-1.054473	0.299906	-0.252730	0.364932	0.035585	0.930354	-0.150586	0.988368	0.021263	-0.918775	-0.147857	0.366046
06575	8.254672	4.058406	3.094543	-1.177376	0.206260	-0.190451	0.367063	0.033990	0.929575	-0.139068	0.990106	0.018711	-0.919742	-0.136142	0.368158
06576	8.301155	3.949910	3.046261	-1.305781	0.108036	-0.129998	0.367887	0.032649	0.929297	-0.126570	0.991840	0.015260	-0.921216	-0.123234	0.369018
06577	8.350357	3.588309	2.956265	-1.417321	0.097420	-0.077723	0.368837	0.031988	0.928944	-0.113220	0.993512	0.010743	-0.922573	-0.109137	0.370065
06578	8.267746	3.033467	3.066148	-1.496808	0.111520	-0.036809	0.369571	0.031472	0.928669	-0.099181	0.995053	0.005748	-0.923894	-0.094231	0.370864
06579	8.256658	2.457843	3.206729	-1.541200	0.094813	-0.011923	0.370416	0.031434	0.928334	-0.084893	0.996390	0.000135	-0.924979	-0.078859	0.371747
06580	8.468374	1.919374	3.315533	-1.544955	0.080369	0.007708	0.370827	0.031255	0.928176	-0.070477	0.997499	-0.005433	-0.926024	-0.063400	0.372102
06581	8.561105	1.454570	3.382243	-1.524034	0.111408	0.024092	0.371800	0.031557	0.927776	-0.056452	0.998341	-0.011335	-0.926595	-0.048160	0.372964
06582	8.473946	1.153193	3.510363	-1.477540	0.144394	0.036853	0.372799	0.031642	0.927373	-0.042708	0.998944	-0.016916	-0.926929	-0.033300	0.373756
06583	8.363866	0.943892	3.674383	-1.437266	0.156057	0.051787	0.374182	0.032201	0.926796	-0.029582	0.999303	-0.022776	-0.926883	-0.018894	0.374873
06584	8.365881	0.796137	3.814994	-1.409360	0.141299	0.067719	0.375162	0.032532	0.926388	-0.016554	0.999460	-0.028394	-0.926811	-0.004683	0.375498
06585	8.413234	0.629550	3.873250	-1.387770	0.132998	0.073346	0.376342	0.033264	0.925884	-0.003973	0.999404	-0.034290	-0.926472	0.009227	0.376250
06586	8.407306	0.382728	3.896834	-1.358856	0.154612	0.069195	0.377472	0.033553	0.925413	0.008601	0.999173	-0.039735	-0.925981	0.022959	0.376871
06587	8.283772	0.185892	3.932089	-1.323913	0.183087	0.054727	0.379128	0.034048	0.924718	0.020645	0.998763	-0.045238	-0.925114	0.036242	0.377956
06588	8.138777	0.000972	3.973549	-1.282267	0.194762	0.035622	0.380644	0.033933	0.924099	0.032637	0.998211	-0.050098	-0.924145	0.049229	0.378856
06589	7.964996	-0.130062	4.025093	-1.236574	0.194236	0.001642	0.382392	0.033845	0.923380	0.044048	0.997525	-0.054804	-0.922950	0.061629	0.379955
06590	7.835372	-0.187097	4.036978	-1.190622	0.197822	-0.020256	0.383924	0.033116	0.922771	0.055396	0.996731	-0.058818	-0.921702	0.073699	0.380834
06591	7.713908	-0.234415	4.120073	-1.143570	0.190180	-0.044464	0.385601	0.032527	0.922092	0.066096	0.995837	-0.062769	-0.920295	0.085150	0.381846
06592	7.686814	-0.237922	4.237269	-1.101476	0.175114	-0.063951	0.386896	0.031333	0.921591	0.076779	0.994857	-0.066057	-0.918921	0.096316	0.382500
06593	7.720038	-0.233239	4.288853	-1.058136	0.144408	-0.084120	0.388105	0.030355	0.921115	0.086818	0.993809	-0.069331	-0.917517	0.106877	0.383067
06594	7.888523	-0.185032	4.338851	-1.012090	0.113847	-0.100148	0.388801	0.028826	0.920871	0.096816	0.992698	-0.071951	-0.916221	0.117129	0.383171
06595	7.926653	-0.112257	4.278993	-0.981877	0.104739	-0.106687	0.389603	0.027647	0.920568	0.106217	0.991531	-0.074731	-0.914837	0.126895	0.383367
06596	7.858866	-0.083725	4.282587	-0.941454	0.110687	-0.112230	0.390247	0.025970	0.920344	0.115614	0.990308	-0.076967	-0.913423	0.136441	0.383462
06597	7.772294	-0.105372	4.232499	-0.912170	0.095890	-0.112881	0.390937	0.024725	0.920085	0.124377	0.989051	-0.079425	-0.911975	0.145488	0.383582
06598	7.719787	0.043142	4.109547	-0.886351	0.080672	-0.107279	0.391303	0.023111	0.919972	0.133254	0.987726	-0.081492	-0.910563	0.154478	0.383420
06599	7.685135	0.095064	3.987611	-0.871417	0.076981	-0.101362	0.391814	0.021996	0.919781	0.141576	0.986366	-0.083898	-0.909086	0.163091	0.383358
06600	7.637680	0.134727	3.851327	-0.854841	0.071136	-0.083201	0.392117	0.020608	0.919685	0.150075	0.984922	-0.086056	-0.907591	0.171765	0.383112
06601	7.586657	0.103317	3.707318	-0.845313	0.076344	-0.068972	0.392653	0.019804	0.919474	0.158007	0.983450	-0.088657	-0.906012	0.180095	0.383025
06602	7.443786	-0.002318	3.555213	-0.814718	0.099005	-0.057450	0.393240	0.018591	0.919248	0.166041	0.981921	-0.090889	-0.904319	0.188374	0.383044
06603	7.394114	-0.064382	3.558528	-0.773460	0.120400	-0.060434	0.394174	0.017776	0.918864	0.173264	0.980447	-0.093294	-0.902555	0.195980	0.383387
06604	7.539569	-0.105510	3.650793	-0.725054	0.141623	-0.067088	0.395121	0.016358	0.918483	0.180520	0.978964	-0.095093	-0.900717	0.203378	0.383857
06605	7.954904	0.010833	3.880671	-0.676980	0.156395	-0.077963	0.396334	0.015282	0.917979	0.186916	0.977578	-0.096975	-0.898878	0.210020	0.384591
06606	8.375221	0.124920	4.074170	-0.634331	0.197047	-0.079677	0.397745	0.013591	0.917395	0.193405	0.976181	-0.098314	-0.896880	0.216533	0.385643
06607	8.752399	0.213343	4.440662	-0.590760	0.247590	-0.063143	0.399787	0.012442	0.916523	0.198945	0.974894	-0.100014	-0.894757	0.222322	0.387275
06608	8.985158	0.320458	4.572296	-0.560268	0.247931	-0.053429	0.401694	0.010847	0.915710	0.204675	0.973572	-0.101317	-0.892609	0.228121	0.388858
06609	8.970457	0.357245	4.552836	-0.530748	0.288132	-0.040650	0.404126	0.009798	0.914651	0.209567	0.972353	-0.103010	-0.890373	0.233309	0.390900
06610	9.184792	0.361931	5.081658	-0.496502	0.347527	-0.034122	0.406947	0.008100	0.913416	0.214666	0.971108	-0.104250	-0.887870	0.238504	0.393450
06611	9.637951	0.506840	5.309514	-0.487870	0.301792	-0.022292	0.409522	0.007168	0.912272	0.219080	0.969936	-0.105966	-0.885605	0.243256	0.395639
06612	9.984505	0.613585	5.177568	-0.484838	0.323750	0.009644	0.412218	0.005880	0.911066	0.223926	0.968652	-0.107569	-0.883139	0.248353	0.397979
06613	9.771288	0.589292	5.109032	-0.494181	0.417689	0.054079	0.415969	0.005367	0.909363	0.228056	0.967411	-0.110030	-0.880318	0.253155	0.401189
06614	9.312207	0.456749	5.199233	-0.511972	0.441159	0.106441	0.419907	0.004641	0.907555	0.232757	0.965991	-0.112632	-0.877213	0.258535	0.404546
06615	9.307119	0.168498	5.274655	-0.532823	0.426379	0.159040	0.423960	0.005075	0.905667	0.236749	0.964593	-0.116231	-0.874190	0.263693	0.407748
06616	9.762126	-0.113048	5.352573	-0.535042	0.408061	0.195875	0.427813	0.005209	0.903852	0.241278	0.963039	-0.119753	-0.871069	0.269311	0.410744
06617	10.242261	-0.358943	5.698374	-0.526879	0.459525	0.225294	0.432302	0.006140	0.901708	0.244887	0.961596	-0.123953	-0.867839	0.274402	0.414196
06618	10.681508	-0.476875	6.114560	-0.532632	0.451960	0.264406	0.436703	0.006730	0.899581	0.249084	0.959973	-0.128100	-0.864435	0.280013	0.417546
06619	10.479909	-0.683191	5.827763	-0.553713	0.381570	0.316005	0.440733	0.008694	0.897596	0.252473	0.958385	-0.133251	-0.861401	0.285347	0.420197
06620	10.106489	-1.092176	5.969041	-0.562183	0.412297	0.345276	0.445000	0.010085	0.895474	0.256544	0.956592	-0.138262	-0.857997	0.291255	0.423097
06621	10.324592	-1.456597	6.607915	-0.586696	0.285914	0.359995	0.448324	0.012697	0.893781	0.259959	0.954828	-0.143961	-0.855235	0.296888	0.424772
06622	10.910331	-1.733498	6.295526	-0.624710	0.014059	0.386206	0.449319	0.015591	0.893235	0.264361	0.952749	-0.149609	-0.853361	0.303359	0.423966
06623	10.363617	-2.181943	4.970077	-0.635044	-0.145297	0.404592	0.449101	0.019899	0.893259	0.267957	0.950734	-0.155899	-0.852354	0.309370	0.421643
06624	8.756838	-2.682431	4.010105	-0.621002	-0.230824	0.390457	0.448064	0.023585	0.893690	0.272295	0.948555	-0.161552	-0.851525	0.315733	0.418591
06625	7.748086	-3.337680	3.406911	-0.592058	-0.498469	0.328654	0.444662	0.028299	0.895251	0.275869	0.946587	-0.166943	-0.852157	0.321206	0.413104
06626	8.286414	-3.935168	2.538439	-0.515147	-0.844858	0.233141	0.437985	0.032542	0.898393	0.279992	0.944700	-0.170721	-0.854268	0.326316	0.404653
06627	9.381300	-4.210126	1.411710	-0.394895	-0.976911	0.151215	0.429992	0.037187	0.902066	0.282713	0.943355	-0.173651	-0.857426	0.329694	0.395122
06628	9.955719	-4.055074	0.686955	-0.252667	-0.806478	0.098444	0.423221	0.040182	0.905135	0.285116	0.942354	-0.175148	-0.859996	0.332195	0.387368
06629	9.725682	-3.680350	0.849940	-0.167321	-0.549918	0.082805	0.418665	0.042806	0.907131	0.286205	0.941766	-0.176531	-0.861862	0.333533	0.382033
06630	9.368918	-3.415535	1.406622	-0.141146	-0.477146	0.080847	0.414627	0.044664	0.908895	0.287612	0.941163	-0.177455	-0.863345	0.334987	0.377385
06631	9.417560	-3.378378	1.566309	-0.150047	-0.524816	0.069148	0.410231	0.047089	0.910765	0.288621	0.940631	-0.178635	-0.865106	0.336148	0.372285
06632	9.560041	-3.465078	1.388822	-0.135674	-0.487471	0.049327	0.405978	0.048775	0.912580	0.290026	0.940079	-0.179269	-0.866641	0.337451	0.367505
06633	9.340756	-3.521018	1.445552	-0.108311	-0.377916	0.024749	0.402713	0.050297	0.913943	0.290863	0.939704	-0.179878	-0.867883	0.338271	0.363801
06634	9.047261	-3.620307	1.668834	-0.083480	-0.324938	-0.007782	0.399673	0.050983	0.915239	0.291954	0.939376	-0.179820	-0.868921	0.339076	0.360559
06635	9.087901	-3.713595	1.808305	-0.046039	-0.314428	-0.051927	0.396727	0.051574	0.916487	0.292558	0.939250	-0.179497	-0.870068	0.339336	0.357537
06636	9.353119	-3.818879	1.785734	0.007143	-0.263229	-0.082734	0.393983	0.051419	0.917678	0.293069	0.939290	-0.178452	-0.871142	0.339250	0.354995
06637	9.476539	-3.802700	1.915665	0.081088	-0.140762	-0.113869	0.392362	0.050839	0.918405	0.292807	0.939626	-0.177107	-0.871961	0.338405	0.353787
06638	9.397268	-3.705697	2.276530	0.145789	-0.015246	-0.143182	0.391587	0.049344	0.918817	0.292253	0.940185	-0.175046	-0.872495	0.337073	0.353743
06639	9.330231	-3.660692	2.604013	0.208379	0.050123	-0.162909	0.391487	0.047656	0.918949	0.291069	0.940967	-0.172798	-0.872936	0.335126	0.354505
06640	9.233830	-3.618088	2.791566	0.273032	0.106365	-0.178997	0.391667	0.045473	0.918983	0.289469	0.941973	-0.169982	-0.873387	0.332593	0.355777
06641	8.978979	-3.524419	2.835812	0.339759	0.159591	-0.193189	0.392441	0.043136	0.918765	0.287255	0.943187	-0.166981	-0.873770	0.329451	0.357754
06642	8.641524	-3.420507	2.945082	0.411608	0.215415	-0.208032	0.393499	0.040375	0.918438	0.284497	0.944646	-0.163418	-0.874197	0.325598	0.360231
06643	8.390100	-3.264655	3.132153	0.479622	0.246267	-0.229270	0.394941	0.037422	0.917944	0.281204	0.946289	-0.159565	-0.874612	0.321148	0.363205
06644	8.264070	-2.967221	3.303964	0.537251	0.235776	-0.246622	0.396090	0.034284	0.917572	0.277451	0.948122	-0.155193	-0.875291	0.316051	0.366029
06645	8.245938	-2.699815	3.375060	0.572580	0.229197	-0.256681	0.397326	0.031141	0.917149	0.273452	0.950004	-0.150721	-0.875989	0.310682	0.368946
06646	8.191136	-2.406079	3.526163	0.592996	0.266674	-0.262332	0.398733	0.027803	0.916646	0.269238	0.951944	-0.145990	-0.876655	0.305007	0.372086
06647	8.108652	-2.214641	3.696957	0.596117	0.275622	-0.262478	0.400385	0.024479	0.916020	0.265056	0.953817	-0.141343	-0.877176	0.299388	0.375406
06648	8.074099	-2.095355	3.843093	0.589049	0.263629	-0.263124	0.401796	0.021179	0.915484	0.260864	0.955663	-0.136599	-0.877787	0.293701	0.378457
06649	8.095842	-2.047319	3.924056	0.590490	0.258830	-0.265164	0.403319	0.017899	0.914884	0.256743	0.957435	-0.131915	-0.878303	0.288094	0.381556
06650	8.104516	-2.010111	3.987605	0.592163	0.252550	-0.271779	0.404647	0.014577	0.914357	0.252552	0.959205	-0.127058	-0.878908	0.282336	0.384458
06651	8.167763	-1.973340	4.045930	0.601821	0.242016	-0.284301	0.405998	0.011180	0.913806	0.248410	0.960926	-0.122124	-0.879465	0.276580	0.387357
06652	8.251115	-1.902053	4.064850	0.609711	0.239226	-0.293780	0.407191	0.007711	0.913310	0.244147	0.962657	-0.116979	-0.880107	0.270615	0.390103
06653	8.388882	-1.726813	4.180288	0.627000	0.250434	-0.303829	0.408596	0.004122	0.912706	0.239863	0.964355	-0.111736	-0.880633	0.264580	0.393043
06654	8.458246	-1.559691	4.282340	0.625113	0.244097	-0.305975	0.409842	0.000548	0.912157	0.235511	0.966030	-0.106398	-0.881229	0.258430	0.395790
06655	8.510231	-1.436965	4.321899	0.619141	0.226913	-0.301649	0.411073	-0.002940	0.911598	0.231288	0.967610	-0.101175	-0.881774	0.252433	0.398438
06656	8.414180	-1.292324	4.272910	0.607287	0.217207	-0.296509	0.412142	-0.006335	0.911098	0.227058	0.969141	-0.095972	-0.882374	0.246426	0.400862
06657	8.354471	-1.240577	4.301874	0.587078	0.203304	-0.295971	0.413205	-0.009694	0.910586	0.223094	0.970549	-0.090903	-0.882888	0.240708	0.403198
06658	8.409279	-1.226892	4.236263	0.562595	0.164076	-0.297198	0.413838	-0.012954	0.910258	0.219265	0.971880	-0.085855	-0.883550	0.235118	0.405041
06659	8.448105	-1.204053	4.063992	0.548796	0.149150	-0.303089	0.414432	-0.016242	0.909935	0.215667	0.973114	-0.080856	-0.884157	0.229752	0.406792
06660	8.316968	-1.087976	3.940142	0.537255	0.162957	-0.302977	0.415073	-0.019543	0.909578	0.212082	0.974304	-0.075847	-0.884724	0.224387	0.408552
06661	8.148153	-0.996910	3.751671	0.502516	0.177326	-0.301864	0.415941	-0.022874	0.909104	0.208886	0.975357	-0.071030	-0.885076	0.219444	0.410469
06662	8.069997	-0.980123	3.627213	0.463625	0.178029	-0.293152	0.416762	-0.026097	0.908641	0.205907	0.976316	-0.066402	-0.885388	0.214769	0.412265
06663	8.043816	-1.001718	3.457861	0.439254	0.196849	-0.291621	0.417843	-0.029359	0.908045	0.203231	0.977171	-0.061924	-0.885497	0.210418	0.414270
06664	8.043947	-1.054316	3.369427	0.409150	0.222872	-0.294641	0.419076	-0.032669	0.907363	0.200732	0.977957	-0.057499	-0.885484	0.206233	0.416396
06665	8.097475	-0.998525	3.259968	0.382763	0.259725	-0.299388	0.420712	-0.036125	0.906475	0.198597	0.978638	-0.053172	-0.885190	0.202393	0.418899
06666	8.180660	-0.919822	3.332437	0.350610	0.315463	-0.299656	0.422767	-0.039639	0.905371	0.196624	0.979257	-0.048940	-0.884651	0.198708	0.421791
06667	8.296370	-0.871111	3.446714	0.310415	0.348232	-0.304588	0.425183	-0.043306	0.904071	0.195168	0.979744	-0.044857	-0.883815	0.195518	0.425023
06668	8.111998	-0.868307	3.224850	0.266986	0.363917	-0.297420	0.427676	-0.046858	0.902717	0.193920	0.980160	-0.040994	-0.882886	0.192587	0.428278
06669	7.948608	-0.896977	3.533927	0.230834	0.457591	-0.304709	0.431057	-0.050718	0.900898	0.193189	0.980455	-0.037239	-0.881401	0.190096	0.432430
06670	8.308198	-0.896175	4.225418	0.197562	0.429645	-0.317546	0.434086	-0.054557	0.899218	0.192641	0.980697	-0.033494	-0.880033	0.187766	0.436217
06671	8.502083	-0.907570	3.860246	0.158585	0.321324	-0.322188	0.436226	-0.058315	0.897946	0.192645	0.980813	-0.029892	-0.878974	0.186025	0.439090
06672	8.352262	-0.975806	3.969711	0.150904	0.439570	-0.329702	0.439314	-0.062263	0.896173	0.192567	0.980933	-0.026247	-0.877452	0.184104	0.442927
06673	8.420984	-0.898181	4.794844	0.137888	0.411722	-0.342678	0.442197	-0.066376	0.894458	0.192866	0.980966	-0.022552	-0.875936	0.182483	0.446582
06674	8.804062	-0.641077	4.687246	0.094946	0.236902	-0.337835	0.443490	-0.070010	0.893541	0.193322	0.980949	-0.019093	-0.875182	0.181209	0.448576
06675	8.727699	-0.460163	4.214117	0.058159	0.226990	-0.321807	0.444786	-0.073574	0.892610	0.194240	0.980824	-0.015944	-0.874320	0.180472	0.450549
06676	8.254393	-0.491851	4.486861	0.027920	0.275503	-0.309577	0.446467	-0.076989	0.891482	0.195162	0.980684	-0.013047	-0.873258	0.179808	0.452868
06677	8.590397	-0.426078	5.087226	-0.002164	0.170173	-0.300751	0.447298	-0.080242	0.890778	0.196522	0.980445	-0.010363	-0.872527	0.179693	0.454320
06678	9.787847	-0.266773	5.514591	-0.035276	0.042076	-0.312705	0.446930	-0.083269	0.890685	0.198026	0.980166	-0.007732	-0.872375	0.179834	0.454556
06679	10.577364	-0.106101	5.288261	-0.069444	-0.010107	-0.301493	0.446177	-0.086203	0.890784	0.199976	0.979786	-0.005349	-0.872317	0.180521	0.454396
06680	9.931961	0.035279	4.719313	-0.099752	0.017090	-0.274633	0.445661	-0.088810	0.890786	0.201867	0.979407	-0.003349	-0.872145	0.181313	0.454411
06681	9.182539	0.046981	5.392276	-0.114658	0.092984	-0.266618	0.445864	-0.091586	0.890403	0.204052	0.978959	-0.001483	-0.871532	0.182350	0.455171
06682	10.334948	0.286833	6.904419	-0.137319	-0.087842	-0.287791	0.444398	-0.094133	0.890870	0.206334	0.978481	0.000463	-0.871744	0.183611	0.454258
06683	12.614074	0.754270	7.192602	-0.183417	-0.337090	-0.307632	0.440752	-0.096516	0.892425	0.209293	0.977850	0.002389	-0.872889	0.185725	0.451189
06684	13.276046	1.136210	5.904999	-0.231884	-0.401210	-0.293636	0.436523	-0.098559	0.894278	0.212462	0.977161	0.003985	-0.874247	0.188261	0.447493
06685	10.988677	1.100337	4.318545	-0.281018	-0.181368	-0.271826	0.434288	-0.100866	0.895109	0.216100	0.976358	0.005175	-0.874468	0.191186	0.445818
06686	8.310010	0.888992	4.098576	-0.280592	-0.095243	-0.291090	0.432706	-0.103455	0.895580	0.219670	0.975552	0.006558	-0.874363	0.193894	0.444853
06687	7.712048	1.116738	4.050618	-0.308769	-0.418727	-0.349599	0.428200	-0.106040	0.897441	0.223873	0.974583	0.008337	-0.875514	0.197343	0.441056
06688	9.066591	1.476150	3.365407	-0.342628	-0.614568	-0.393166	0.421805	-0.108598	0.900159	0.228429	0.973505	0.010407	-0.877440	0.201233	0.435436
06689	9.762932	1.784090	2.776924	-0.355781	-0.462125	-0.418654	0.416714	-0.111726	0.902146	0.233305	0.972321	0.012650	-0.878589	0.205203	0.431246
06690	9.084816	1.950689	2.732653	-0.377204	-0.204900	-0.437709	0.413746	-0.115514	0.903034	0.238308	0.971073	0.015031	-0.878649	0.208981	0.429306
06691	8.188664	2.031361	3.023283	-0.414206	-0.141707	-0.458951	0.411328	-0.119663	0.903598	0.243836	0.969660	0.017414	-0.878267	0.213167	0.428026
06692	8.133554	2.189255	3.148550	-0.452776	-0.188527	-0.484008	0.408327	-0.123922	0.904385	0.249675	0.968125	0.019929	-0.878027	0.217665	0.426252
06693	8.804321	2.365700	3.382408	-0.494753	-0.173672	-0.491009	0.405493	-0.128283	0.905052	0.256012	0.966417	0.022279	-0.877515	0.222671	0.424717
06694	9.313827	2.551565	3.496362	-0.539597	-0.130327	-0.492734	0.402906	-0.132751	0.905563	0.262642	0.964581	0.024547	-0.876747	0.227948	0.423502
06695	9.093674	2.713142	3.510462	-0.590718	-0.082389	-0.486223	0.400822	-0.137238	0.905819	0.269768	0.962562	0.026464	-0.875538	0.233753	0.422838
06696	8.613536	2.745233	3.617160	-0.656555	-0.073495	-0.481971	0.398677	-0.141733	0.906073	0.277371	0.960350	0.028178	-0.874141	0.240084	0.422182
06697	8.466029	2.886573	3.813701	-0.725966	-0.148749	-0.479965	0.395959	-0.145965	0.906593	0.285615	0.957891	0.029481	-0.872720	0.247264	0.420975
06698	8.803865	2.951112	3.781165	-0.814913	-0.241374	-0.470713	0.392288	-0.149936	0.907540	0.294555	0.955148	0.030479	-0.871406	0.255364	0.418858
06699	9.159555	2.932085	3.631453	-0.895109	-0.257500	-0.459189	0.388603	-0.153636	0.908506	0.304137	0.952126	0.030922	-0.869763	0.264294	0.416726
06700	9.087742	2.747909	3.557292	-0.957138	-0.215087	-0.444179	0.385142	-0.157391	0.909337	0.314187	0.948850	0.031159	-0.867728	0.273701	0.414892
06701	8.937097	2.560382	3.668950	-1.003263	-0.199516	-0.438498	0.381944	-0.160977	0.910058	0.324559	0.945357	0.031006	-0.865321	0.283525	0.413320
06702	8.945919	2.344122	3.536243	-1.045740	-0.212694	-0.438809	0.378422	-0.164643	0.910873	0.335308	0.941602	0.030894	-0.862766	0.293732	0.411529
06703	9.021421	2.194045	3.346296	-1.055812	-0.188223	-0.434660	0.375251	-0.168152	0.911544	0.346037	0.937724	0.030531	-0.859910	0.303971	0.410068
06704	8.934133	1.991084	3.292300	-1.044917	-0.114195	-0.430182	0.372507	-0.171982	0.911954	0.356674	0.933734	0.030399	-0.856751	0.313947	0.409164
06705	8.852654	1.788204	3.371089	-1.024594	-0.057417	-0.433581	0.370378	-0.175825	0.912089	0.367042	0.929715	0.030176	-0.853288	0.323598	0.408881
06706	8.992679	1.652221	3.444692	-0.986508	-0.011912	-0.437358	0.368385	-0.180010	0.912079	0.377122	0.925665	0.030373	-0.849748	0.332776	0.408887
06707	9.043816	1.654858	3.532005	-0.941698	0.048580	-0.430777	0.367083	-0.184137	0.911781	0.386687	0.921708	0.030462	-0.846004	0.341392	0.409546
06708	8.959078	1.661126	3.626803	-0.907564	0.122853	-0.410921	0.366238	-0.188514	0.911226	0.395920	0.917770	0.030740	-0.842091	0.349514	0.410759
06709	8.802033	1.554341	3.711018	-0.873288	0.166362	-0.384768	0.366026	-0.192609	0.910454	0.404661	0.913952	0.030664	-0.838018	0.357202	0.412471
06710	8.675661	1.447786	3.743899	-0.851148	0.182983	-0.349271	0.365845	-0.196637	0.909666	0.413128	0.910159	0.030593	-0.833956	0.364616	0.414213
06711	8.547697	1.277806	3.722419	-0.806411	0.211682	-0.319176	0.366205	-0.200297	0.908722	0.421002	0.906558	0.030160	-0.829850	0.371529	0.416312
06712	8.410745	1.046230	3.745361	-0.759400	0.228979	-0.300796	0.366535	-0.204065	0.907750	0.428471	0.903057	0.030001	-0.825872	0.377948	0.418438
06713	8.392020	0.901092	3.776269	-0.706554	0.247737	-0.284023	0.367280	-0.207550	0.906658	0.435331	0.899783	0.029627	-0.821944	0.383815	0.420825
06714	8.418197	0.759419	3.845743	-0.643533	0.267455	-0.271268	0.367992	-0.211211	0.905523	0.441689	0.896678	0.029652	-0.818225	0.389048	0.423260
06715	8.485060	0.696435	3.938675	-0.579500	0.292425	-0.251932	0.369190	-0.214591	0.904240	0.447346	0.893875	0.029485	-0.814605	0.393622	0.426006
06716	8.382104	0.699247	4.007899	-0.520702	0.316650	-0.240785	0.370388	-0.218184	0.902889	0.452554	0.891242	0.029721	-0.811177	0.397597	0.428846
06717	8.274043	0.777882	4.062761	-0.462893	0.336919	-0.226556	0.372015	-0.221525	0.901405	0.457139	0.888896	0.029787	-0.807855	0.400986	0.431951
06718	8.186877	0.914269	4.165056	-0.416368	0.350235	-0.212723	0.373569	-0.225017	0.899896	0.461379	0.886690	0.030185	-0.804721	0.403917	0.435058
06719	8.130000	1.112241	4.215477	-0.390916	0.366128	-0.198240	0.375521	-0.228235	0.898272	0.465258	0.884657	0.030276	-0.801573	0.406559	0.438396
06720	8.102528	1.266587	4.281152	-0.379902	0.382816	-0.190557	0.377397	-0.231684	0.896601	0.469118	0.882605	0.030606	-0.798436	0.409061	0.441780
06721	8.060747	1.320448	4.324321	-0.379039	0.401820	-0.184570	0.379659	-0.234938	0.894798	0.472834	0.880620	0.030594	-0.795165	0.411476	0.445422
06722	7.898254	1.360861	4.336908	-0.377195	0.419996	-0.181761	0.381827	-0.238488	0.892934	0.476642	0.878557	0.030832	-0.791846	0.413837	0.449131
06723	7.604659	1.340088	4.229578	-0.373237	0.448668	-0.182098	0.384430	-0.241926	0.890890	0.480286	0.876572	0.030788	-0.788377	0.416046	0.453174
06724	7.420793	1.268707	4.196644	-0.363637	0.459949	-0.182201	0.386862	-0.245674	0.888809	0.483992	0.874521	0.031063	-0.784914	0.418160	0.457223
06725	7.294644	1.242444	4.172218	-0.344993	0.457221	-0.188448	0.389457	-0.249214	0.886688	0.487423	0.872609	0.031168	-0.781500	0.420054	0.461316
06726	7.282612	1.162565	4.103549	-0.314984	0.471835	-0.198078	0.391853	-0.253176	0.884507	0.490816	0.870684	0.031778	-0.778172	0.421678	0.465443
06727	7.289976	1.231579	4.151909	-0.277881	0.507168	-0.215838	0.394658	-0.257171	0.882104	0.493820	0.868960	0.032402	-0.774847	0.422813	0.469938
06728	7.461204	1.277591	4.362192	-0.241101	0.540270	-0.236025	0.397346	-0.261769	0.879542	0.496796	0.867214	0.033665	-0.771563	0.423576	0.474629
06729	7.861379	1.355889	4.709367	-0.201162	0.573413	-0.256655	0.400411	-0.266399	0.876757	0.499366	0.865685	0.034976	-0.768312	0.423818	0.479660
06730	8.247322	1.521050	4.899882	-0.169607	0.574239	-0.270672	0.403132	-0.271450	0.873956	0.501950	0.864111	0.036857	-0.765200	0.423824	0.484605
06731	8.185644	1.651887	4.806607	-0.137792	0.614976	-0.272276	0.406387	-0.276383	0.870897	0.504102	0.862782	0.038578	-0.762057	0.423343	0.489949
06732	7.978514	1.627922	5.179888	-0.111404	0.696603	-0.275097	0.409958	-0.281993	0.867418	0.506283	0.861404	0.040759	-0.758691	0.422450	0.495907
06733	8.374872	1.678558	5.740670	-0.085089	0.638148	-0.282628	0.413285	-0.287095	0.864160	0.508089	0.860241	0.042799	-0.755673	0.421381	0.501394
06734	8.976562	1.866934	5.717819	-0.072758	0.590962	-0.274588	0.415997	-0.292261	0.861121	0.510018	0.858978	0.045150	-0.752880	0.420405	0.506390
06735	9.142698	1.883976	5.855919	-0.062058	0.674343	-0.254258	0.419693	-0.297251	0.857613	0.511545	0.857968	0.047037	-0.749786	0.418966	0.512141
06736	8.952456	1.812207	6.015657	-0.054173	0.683016	-0.225948	0.423287	-0.302382	0.854045	0.513165	0.856887	0.049051	-0.746652	0.417504	0.517881
06737	8.766946	1.765432	5.951883	-0.050085	0.663186	-0.189907	0.427181	-0.306750	0.850541	0.514344	0.856100	0.050427	-0.743617	0.415930	0.523485
06738	8.761741	1.659784	6.036957	-0.041946	0.660688	-0.161989	0.430880	-0.311239	0.847038	0.515638	0.855230	0.051949	-0.740581	0.414381	0.528988
06739	9.125078	1.572007	6.408395	-0.030416	0.664253	-0.129708	0.435048	-0.315072	0.843483	0.516423	0.854698	0.052903	-0.737591	0.412579	0.534545
06740	9.861574	1.483763	7.198008	-0.028534	0.700966	-0.096344	0.439329	-0.319160	0.839718	0.517364	0.854064	0.053935	-0.734387	0.410745	0.540337
06741	10.983403	1.376216	8.043070	-0.034181	0.673965	-0.049194	0.443942	-0.322320	0.836078	0.517830	0.853766	0.054181	-0.731278	0.408893	0.545929
06742	11.484166	1.204598	7.802362	-0.055966	0.592556	0.012150	0.447942	-0.325036	0.832886	0.518521	0.853348	0.054151	-0.728343	0.407613	0.550789
06743	10.777546	0.867906	7.569414	-0.055073	0.674833	0.081905	0.453199	-0.327061	0.829242	0.518552	0.853390	0.053186	-0.725062	0.405901	0.556353
06744	10.305085	0.467083	8.276757	-0.044253	0.663839	0.119615	0.458234	-0.329135	0.825646	0.518671	0.853371	0.052325	-0.721805	0.404261	0.561757
06745	10.557795	0.102205	7.877923	-0.043750	0.372057	0.146113	0.461602	-0.329370	0.823674	0.518314	0.853675	0.050894	-0.719913	0.403429	0.564775
06746	10.125245	-0.146361	6.345841	-0.004369	0.344899	0.170071	0.464579	-0.329724	0.821857	0.517921	0.853975	0.049839	-0.718278	0.402503	0.567510
06747	8.602762	-0.376323	5.841125	0.055025	0.462373	0.192098	0.468817	-0.329918	0.819368	0.516630	0.854829	0.048597	-0.716452	0.400527	0.571204
06748	7.340020	-0.499558	5.549608	0.081377	0.334648	0.190487	0.471826	-0.330021	0.817598	0.515492	0.855557	0.047858	-0.715296	0.398884	0.573798
06749	7.061496	-0.551892	4.915170	0.113261	0.169745	0.197572	0.473984	-0.328985	0.816767	0.513748	0.856658	0.046916	-0.715124	0.397375	0.575058
06750	7.126126	-0.567257	4.515260	0.131854	0.153866	0.200866	0.475758	-0.328255	0.816029	0.512183	0.857624	0.046376	-0.715069	0.395892	0.576148
06751	6.972742	-0.463032	4.357481	0.140994	0.172175	0.203098	0.477954	-0.327172	0.815180	0.510206	0.858845	0.045555	-0.715017	0.394137	0.577414
06752	6.821284	-0.449335	4.505573	0.121823	0.168967	0.199831	0.479838	-0.326475	0.814352	0.508683	0.859779	0.044957	-0.714840	0.392675	0.578627
06753	7.011927	-0.437212	4.715429	0.098887	0.155680	0.188444	0.481834	-0.325445	0.813586	0.507070	0.860780	0.044018	-0.714644	0.391336	0.579776
06754	7.426992	-0.454016	4.916615	0.069208	0.147944	0.162189	0.483385	-0.324960	0.812859	0.506077	0.861395	0.043414	-0.714301	0.390384	0.580840
06755	7.645102	-0.458249	4.929945	0.038428	0.159975	0.132658	0.485123	-0.324422	0.812038	0.505160	0.861974	0.042582	-0.713771	0.389552	0.582049
06756	7.477227	-0.477631	5.015632	0.016968	0.199290	0.109403	0.486783	-0.324564	0.810988	0.504766	0.862229	0.042093	-0.712919	0.388869	0.583547
06757	7.197374	-0.507150	5.161878	-0.022366	0.187467	0.080499	0.488450	-0.324580	0.809978	0.504534	0.862402	0.041333	-0.711943	0.388472	0.585001
06758	7.225544	-0.567433	5.222528	-0.061587	0.140685	0.069867	0.489501	-0.324814	0.809249	0.504871	0.862235	0.040694	-0.710981	0.388647	0.586054
06759	7.361279	-0.659227	5.301104	-0.089345	0.101786	0.051151	0.490408	-0.324750	0.808726	0.505256	0.862052	0.039779	-0.710083	0.389105	0.586839
06760	7.403473	-0.809440	5.288758	-0.105821	0.068915	0.035942	0.490789	-0.324981	0.808402	0.506055	0.861613	0.039141	-0.709249	0.389886	0.587328
06761	7.373932	-0.935071	5.391318	-0.105429	0.047294	0.019144	0.491145	-0.324982	0.808185	0.506709	0.861262	0.038391	-0.708535	0.390659	0.587676
06762	7.479837	-1.024053	5.526133	-0.102756	-0.010066	-0.001654	0.490789	-0.325210	0.808310	0.507656	0.860719	0.038058	-0.708104	0.391665	0.587526
06763	7.718832	-1.114327	5.458029	-0.093298	-0.076331	-0.021029	0.490066	-0.325073	0.808803	0.508421	0.860283	0.037704	-0.708056	0.392735	0.586869
06764	7.697996	-1.206950	5.335167	-0.070123	-0.104174	-0.034151	0.488893	-0.325188	0.809467	0.509276	0.859772	0.037810	-0.708252	0.393757	0.585947
06765	7.524778	-1.296614	5.302575	-0.039000	-0.131961	-0.060878	0.487572	-0.325172	0.810270	0.509851	0.859419	0.038099	-0.708750	0.394541	0.584818
06766	7.424912	-1.327730	5.249183	-0.005716	-0.200728	-0.080868	0.485491	-0.325277	0.811476	0.510453	0.859024	0.038943	-0.709744	0.395314	0.583087
06767	7.476592	-1.311695	5.076707	0.041280	-0.268688	-0.105850	0.482964	-0.325105	0.813051	0.510673	0.858841	0.040067	-0.711308	0.395852	0.580812
06768	7.578918	-1.233806	4.999631	0.085669	-0.310217	-0.132405	0.479851	-0.325190	0.814859	0.510845	0.858654	0.041843	-0.713289	0.396188	0.578147
06769	7.601772	-1.175479	4.895040	0.129892	-0.345429	-0.158990	0.476493	-0.325168	0.816836	0.510678	0.858650	0.043914	-0.715655	0.396215	0.575197
06770	7.720522	-1.000087	4.874331	0.172403	-0.360537	-0.180949	0.472773	-0.325439	0.818886	0.510415	0.858667	0.046567	-0.718305	0.395956	0.572063
06771	7.901134	-0.873067	4.894379	0.205422	-0.362297	-0.198834	0.469073	-0.325694	0.820910	0.509873	0.858830	0.049394	-0.721110	0.395391	0.568917
06772	8.025734	-0.733538	4.893508	0.226910	-0.349979	-0.215737	0.465250	-0.326279	0.822851	0.509324	0.858965	0.052621	-0.723969	0.394616	0.565815
06773	8.074184	-0.571248	4.901270	0.250931	-0.297314	-0.224201	0.461874	-0.327016	0.824460	0.508543	0.859219	0.055910	-0.726675	0.393450	0.563152
06774	8.089645	-0.426933	4.988861	0.264355	-0.245510	-0.240736	0.458682	-0.328207	0.825767	0.507778	0.859429	0.059534	-0.729227	0.391999	0.560861
06775	8.101870	-0.305891	4.979156	0.263779	-0.203939	-0.257723	0.455805	-0.329606	0.826802	0.507030	0.859611	0.063166	-0.731548	0.390422	0.558935
06776	8.070769	-0.227253	5.008827	0.266928	-0.132822	-0.271754	0.453286	-0.331489	0.827434	0.506335	0.859727	0.067045	-0.733592	0.388568	0.557546
06777	7.914438	-0.129475	5.064220	0.264156	-0.062496	-0.281749	0.451321	-0.333652	0.827639	0.505669	0.859811	0.070874	-0.735261	0.386524	0.556768
06778	7.722902	-0.111112	5.091767	0.254378	-0.011314	-0.290722	0.449609	-0.336154	0.827558	0.505113	0.859804	0.074827	-0.736691	0.384367	0.556371
06779	7.619460	-0.069402	5.086100	0.248260	0.032454	-0.298296	0.448261	-0.338826	0.827199	0.504621	0.859746	0.078702	-0.737848	0.382143	0.556370
06780	7.450180	-0.072486	5.126380	0.243863	0.092595	-0.310493	0.447228	-0.341884	0.826500	0.504206	0.859610	0.082749	-0.738758	0.379719	0.556821
06781	7.349489	-0.046180	5.251436	0.242061	0.137474	-0.320653	0.446546	-0.345143	0.825513	0.503850	0.859422	0.086772	-0.739413	0.377187	0.557672
06782	7.303687	-0.020325	5.306924	0.239179	0.153259	-0.326154	0.445893	-0.348553	0.824434	0.503530	0.859181	0.090910	-0.740025	0.374591	0.558609
06783	7.283894	-0.042009	5.269738	0.228804	0.187516	-0.332530	0.445525	-0.352093	0.823127	0.503318	0.858868	0.094955	-0.740390	0.371990	0.559862
06784	7.106874	-0.107843	5.210725	0.232160	0.214561	-0.321187	0.445360	-0.355673	0.821676	0.503025	0.858583	0.099002	-0.740689	0.369232	0.561291
06785	6.938342	-0.184323	5.185198	0.229807	0.230297	-0.309290	0.445429	-0.359159	0.820121	0.502700	0.858320	0.102859	-0.740868	0.366459	0.562870
06786	6.891731	-0.311778	5.132886	0.234609	0.228952	-0.285633	0.445558	-0.362470	0.818592	0.502233	0.858135	0.106615	-0.741107	0.363621	0.564394
06787	7.041685	-0.511954	5.138977	0.247715	0.213173	-0.252599	0.445789	-0.365395	0.817165	0.501522	0.858109	0.110107	-0.741449	0.360742	0.565790
06788	7.164058	-0.567018	5.061833	0.276564	0.209220	-0.215067	0.446142	-0.368008	0.815799	0.500427	0.858305	0.113510	-0.741977	0.357606	0.567087
06789	7.145507	-0.530514	5.046536	0.291196	0.226553	-0.178546	0.446850	-0.370332	0.814358	0.499063	0.858679	0.116645	-0.742470	0.354293	0.568520
06790	7.082841	-0.452150	5.073047	0.304560	0.257246	-0.145616	0.447926	-0.372491	0.812781	0.497439	0.859211	0.119629	-0.742911	0.350724	0.570155
06791	7.390746	-0.319283	5.603746	0.306908	0.288798	-0.124476	0.449372	-0.374554	0.811033	0.495717	0.859813	0.122418	-0.743189	0.347031	0.572049
06792	8.188395	-0.169752	5.994282	0.286004	0.265296	-0.112312	0.450691	-0.376427	0.809432	0.494079	0.860381	0.125018	-0.743480	0.343579	0.573751
06793	8.467051	-0.032437	5.914606	0.258546	0.308993	-0.092985	0.452448	-0.378271	0.807590	0.492577	0.860911	0.127282	-0.743410	0.340212	0.575845
06794	8.377174	0.035068	6.520648	0.241564	0.445422	-0.087116	0.455244	-0.380506	0.804965	0.491151	0.861407	0.129418	-0.742646	0.336443	0.579036
06795	8.569814	0.132536	7.081807	0.197984	0.359631	-0.097755	0.457352	-0.382540	0.802803	0.490127	0.861693	0.131378	-0.742027	0.333389	0.581590
06796	8.689710	0.211554	6.541718	0.151272	0.274215	-0.106533	0.458786	-0.384347	0.801120	0.489477	0.861792	0.133141	-0.741571	0.331047	0.583507
06797	8.402280	0.179255	6.712805	0.130189	0.384659	-0.123626	0.460950	-0.386668	0.798757	0.489081	0.861741	0.134917	-0.740490	0.328467	0.586331
06798	8.067721	0.257972	6.937195	0.088596	0.314662	-0.151833	0.462465	-0.388980	0.796756	0.489113	0.861447	0.136665	-0.739523	0.326501	0.588644
06799	8.277522	0.399172	6.896303	0.053520	0.231947	-0.186601	0.463185	-0.391331	0.795185	0.489581	0.860889	0.138491	-0.738763	0.325161	0.590339
06800	8.762247	0.542354	7.189405	0.029112	0.251777	-0.228394	0.463856	-0.394092	0.793428	0.490429	0.860084	0.140484	-0.737779	0.323955	0.592229
06801	9.303164	0.824015	7.682099	-0.001509	0.238012	-0.274206	0.464183	-0.397208	0.791682	0.491712	0.858990	0.142674	-0.736718	0.323053	0.594040
06802	9.717811	1.039796	7.680589	-0.042447	0.174987	-0.311061	0.463873	-0.400425	0.790241	0.493485	0.857603	0.144881	-0.735727	0.322766	0.595423
06803	9.409464	1.133136	7.290648	-0.064679	0.192556	-0.333336	0.463560	-0.403891	0.788660	0.495506	0.856049	0.147153	-0.734565	0.322572	0.596960
06804	9.117870	1.229994	8.075918	-0.069870	0.259261	-0.344419	0.463689	-0.407654	0.786645	0.497636	0.854416	0.149441	-0.733042	0.322169	0.599046
06805	10.271169	1.516720	9.154566	-0.086038	0.129120	-0.375326	0.462682	-0.411261	0.785359	0.500005	0.852597	0.151901	-0.732066	0.322401	0.600114
06806	11.575643	1.871340	8.630147	-0.120461	-0.037419	-0.373213	0.460468	-0.414318	0.785054	0.502660	0.850639	0.154099	-0.731643	0.323658	0.599953
06807	10.691359	2.018794	7.103079	-0.135356	0.089665	-0.333834	0.459361	-0.417433	0.784052	0.505186	0.848807	0.155931	-0.730599	0.324463	0.600790
06808	8.035195	1.924316	6.530047	-0.119083	0.280439	-0.302930	0.459811	-0.420897	0.781933	0.507478	0.847134	0.157574	-0.728725	0.324360	0.603118
06809	6.093444	2.074343	6.116347	-0.112846	0.063662	-0.307655	0.458629	-0.423695	0.781115	0.509713	0.845464	0.159323	-0.727909	0.325074	0.603718
06810	5.861017	2.365941	5.232498	-0.133956	-0.209207	-0.311412	0.455440	-0.425649	0.781919	0.512171	0.843670	0.160943	-0.728186	0.327176	0.602246
06811	6.140065	2.537890	4.434314	-0.138343	-0.283710	-0.302310	0.451741	-0.427253	0.783189	0.514550	0.841921	0.162502	-0.728813	0.329581	0.600173
06812	6.044393	2.700703	4.132836	-0.135328	-0.270342	-0.295320	0.448160	-0.428862	0.784366	0.516937	0.840165	0.164011	-0.729335	0.331964	0.598223
06813	5.831405	2.803470	4.208908	-0.142071	-0.283612	-0.278183	0.444569	-0.430239	0.785654	0.519215	0.838491	0.165372	-0.729914	0.334404	0.596154
06814	6.124392	2.934940	4.425692	-0.156956	-0.354121	-0.263051	0.440518	-0.431279	0.787365	0.521594	0.836785	0.166526	-0.730674	0.337327	0.593571
06815	6.808765	3.100754	4.587855	-0.174925	-0.403974	-0.247225	0.436191	-0.431963	0.789396	0.523956	0.835120	0.167465	-0.731579	0.340562	0.590601
06816	7.375853	3.206820	4.742269	-0.198631	-0.396142	-0.223406	0.432012	-0.432502	0.791396	0.526445	0.833427	0.168093	-0.732271	0.344009	0.587739
06817	7.483960	3.245352	4.831036	-0.214221	-0.376061	-0.203788	0.428100	-0.432884	0.793310	0.528890	0.831799	0.168477	-0.732806	0.347449	0.585042
06818	7.342992	3.210184	5.004508	-0.223648	-0.371462	-0.201101	0.424199	-0.433288	0.795183	0.531438	0.830105	0.168816	-0.733231	0.350980	0.582396
06819	7.364132	3.340511	5.193015	-0.228332	-0.412852	-0.209852	0.419971	-0.433557	0.797278	0.533998	0.828385	0.169186	-0.733805	0.354692	0.579417
06820	7.787220	3.554084	5.291864	-0.242724	-0.469873	-0.219714	0.415222	-0.433736	0.799664	0.536748	0.826521	0.169599	-0.734501	0.358797	0.575997
06821	8.080620	3.732989	5.138366	-0.266269	-0.478127	-0.212006	0.410487	-0.433745	0.802101	0.539579	0.824636	0.169794	-0.735089	0.363099	0.572542
06822	8.124423	3.797195	5.155673	-0.295432	-0.436908	-0.196683	0.406077	-0.433811	0.804307	0.542597	0.822660	0.169764	-0.735316	0.367477	0.569448
06823	7.979166	3.872286	5.141156	-0.335467	-0.427778	-0.177623	0.401883	-0.433672	0.806485	0.545780	0.820644	0.169315	-0.735265	0.372118	0.566492
06824	7.917265	3.917717	5.045259	-0.382939	-0.418003	-0.153086	0.397829	-0.433407	0.808635	0.549241	0.818504	0.168483	-0.734892	0.377108	0.563670
06825	7.901686	3.879691	4.993956	-0.434728	-0.393621	-0.125597	0.394164	-0.432921	0.810687	0.552930	0.816304	0.167081	-0.734100	0.382396	0.561133
06826	7.968560	3.844250	5.071982	-0.494612	-0.371127	-0.101393	0.390725	-0.432370	0.812644	0.556982	0.813919	0.165248	-0.732874	0.388062	0.558841
06827	8.039240	3.691674	5.104247	-0.544790	-0.353746	-0.081565	0.387597	-0.431631	0.814533	0.561286	0.811432	0.162899	-0.731250	0.394047	0.556777
06828	7.962497	3.498143	5.042613	-0.589159	-0.339928	-0.070931	0.384550	-0.430913	0.816355	0.565883	0.808746	0.160333	-0.729313	0.400305	0.554850
06829	7.789525	3.321447	5.017186	-0.619844	-0.318058	-0.059087	0.381816	-0.430087	0.818072	0.570621	0.805986	0.157409	-0.727054	0.406708	0.553155
06830	7.672970	3.141054	5.011691	-0.646003	-0.319216	-0.057673	0.378995	-0.429304	0.819793	0.575545	0.803051	0.154459	-0.724645	0.413288	0.551436
06831	7.684018	3.022606	4.945376	-0.669633	-0.321702	-0.049834	0.376298	-0.428341	0.821537	0.580575	0.800043	0.151207	-0.722034	0.420065	0.549739
06832	7.623482	2.903025	4.807657	-0.691266	-0.302756	-0.046016	0.373667	-0.427494	0.823178	0.585741	0.796880	0.147950	-0.719222	0.426886	0.548168
06833	7.444461	2.786952	4.805032	-0.710124	-0.278394	-0.040602	0.371348	-0.426595	0.824692	0.590987	0.793647	0.144423	-0.716125	0.433752	0.546832
06834	7.283810	2.661809	4.776271	-0.731359	-0.264729	-0.038573	0.369040	-0.425813	0.826131	0.596364	0.790249	0.140917	-0.712853	0.440671	0.545573
06835	7.221575	2.550042	4.833511	-0.754026	-0.257167	-0.041217	0.366883	-0.424971	0.827525	0.601875	0.786720	0.137175	-0.709326	0.447740	0.544413
06836	7.332198	2.377465	4.831698	-0.769412	-0.244171	-0.044389	0.364693	-0.424291	0.828840	0.607490	0.783022	0.133538	-0.705659	0.454812	0.543315
06837	7.279255	2.310236	4.862598	-0.785119	-0.221716	-0.054417	0.362719	-0.423674	0.830021	0.613212	0.779189	0.129755	-0.701717	0.461914	0.542428
06838	7.271854	2.268217	4.983875	-0.804821	-0.195742	-0.067840	0.360732	-0.423368	0.831043	0.619099	0.775116	0.126144	-0.697560	0.468993	0.541716
06839	7.237762	2.235433	5.023223	-0.825773	-0.185620	-0.080642	0.358857	-0.423087	0.831997	0.625129	0.770869	0.122371	-0.693134	0.476192	0.541116
06840	7.310789	2.217741	5.089338	-0.854749	-0.179021	-0.098001	0.356799	-0.423066	0.832893	0.631402	0.766308	0.118761	-0.688496	0.483516	0.540542
06841	7.401873	2.192546	5.128315	-0.892150	-0.164957	-0.112758	0.354870	-0.423094	0.833702	0.637921	0.761480	0.114908	-0.683464	0.491059	0.540128
06842	7.361126	2.072191	5.102060	-0.921879	-0.144407	-0.123441	0.352882	-0.423408	0.834386	0.644659	0.756345	0.111165	-0.678152	0.498666	0.539854
06843	7.204856	1.958246	5.041794	-0.947390	-0.128381	-0.143119	0.351006	-0.423811	0.834972	0.651559	0.750975	0.107273	-0.672507	0.506380	0.539735
06844	6.992928	1.816715	4.950618	-0.962333	-0.124989	-0.153609	0.348943	-0.424421	0.835527	0.658572	0.745355	0.103576	-0.666725	0.514113	0.539598
06845	6.827388	1.787993	4.827669	-0.980530	-0.128241	-0.171879	0.346873	-0.425000	0.836095	0.665677	0.739543	0.099750	-0.660722	0.521968	0.539440
06846	6.721214	1.726646	4.707407	-0.988888	-0.133971	-0.176721	0.344583	-0.425701	0.836685	0.672831	0.733527	0.096114	-0.654646	0.529828	0.539186
06847	6.724700	1.620531	4.664047	-0.995287	-0.131895	-0.183285	0.342404	-0.426302	0.837273	0.679943	0.727431	0.092311	-0.648411	0.537691	0.538936
06848	6.870608	1.523109	4.667417	-0.980438	-0.142412	-0.196434	0.339912	-0.427061	0.837901	0.686984	0.721214	0.088899	-0.642272	0.545407	0.538534
06849	6.973470	1.419769	4.600212	-0.948527	-0.145445	-0.216114	0.337411	-0.427779	0.838546	0.693778	0.715080	0.085633	-0.636259	0.552871	0.538059
06850	7.075095	1.428406	4.703134	-0.906556	-0.133456	-0.239521	0.334662	-0.428851	0.839100	0.700370	0.708939	0.082995	-0.630463	0.559905	0.537609
06851	7.307042	1.459993	4.825069	-0.862967	-0.135325	-0.263868	0.331878	-0.429913	0.839662	0.706665	0.702943	0.080602	-0.624886	0.566609	0.537096
06852	7.644636	1.471731	4.933470	-0.802410	-0.132523	-0.284667	0.328798	-0.431260	0.840183	0.712641	0.697075	0.078918	-0.619705	0.572801	0.536531
06853	7.882127	1.522183	4.996678	-0.754033	-0.108316	-0.290028	0.325976	-0.432610	0.840588	0.718244	0.691480	0.077340	-0.614708	0.578536	0.536126
06854	8.032327	1.633412	5.084934	-0.705248	-0.084370	-0.277991	0.323220	-0.434141	0.840863	0.723503	0.686110	0.076133	-0.609977	0.583759	0.535867
06855	8.122600	1.708074	5.304700	-0.662278	-0.062321	-0.263269	0.320852	-0.435535	0.841049	0.728374	0.681081	0.074828	-0.605413	0.588590	0.535759
06856	8.525041	1.699327	5.726209	-0.621471	-0.056073	-0.258399	0.318391	-0.437061	0.841193	0.732982	0.676221	0.073913	-0.601137	0.593045	0.535660
06857	9.110531	1.815815	5.885834	-0.584612	-0.091707	-0.257968	0.315867	-0.438212	0.841545	0.737301	0.671610	0.072983	-0.597173	0.597419	0.535233
06858	9.267939	1.890081	5.595729	-0.553569	-0.081289	-0.236744	0.313394	-0.439414	0.841843	0.741372	0.667193	0.072261	-0.593424	0.601472	0.534863
06859	8.906256	1.937263	5.681470	-0.528077	0.000875	-0.212153	0.311745	-0.440787	0.841737	0.745157	0.663072	0.071251	-0.589539	0.605014	0.535165
06860	8.702820	1.905290	5.891614	-0.518650	-0.028625	-0.184436	0.309961	-0.441933	0.841795	0.748799	0.659061	0.070281	-0.585854	0.608551	0.535202
06861	9.154914	1.850879	5.975495	-0.520692	-0.077445	-0.159149	0.308237	-0.442462	0.842150	0.752330	0.655177	0.068866	-0.582228	0.612348	0.534828
06862	9.820628	1.809944	6.270357	-0.522892	-0.047149	-0.127037	0.306765	-0.443104	0.842350	0.755773	0.651356	0.067399	-0.578534	0.615950	0.534700
06863	10.501933	1.734177	6.883713	-0.529465	-0.000539	-0.083894	0.306049	-0.443601	0.842349	0.759082	0.647711	0.065304	-0.574568	0.619426	0.534961
06864	10.824170	1.689477	6.805836	-0.562108	-0.044883	-0.034095	0.305292	-0.443643	0.842602	0.762419	0.644024	0.062849	-0.570539	0.623228	0.534857
06865	10.453342	1.505927	6.358675	-0.592901	0.000019	0.027900	0.305428	-0.443418	0.842671	0.765702	0.640440	0.059473	-0.566051	0.627070	0.535134
06866	9.876053	1.212323	6.885485	-0.622262	0.065026	0.074889	0.306131	-0.443444	0.842402	0.768986	0.636828	0.055778	-0.561199	0.630720	0.535955
06867	10.413831	0.930111	7.464509	-0.668082	-0.093981	0.101357	0.306310	-0.442159	0.843012	0.772408	0.633045	0.051376	-0.556381	0.635413	0.535435
06868	11.416389	0.601012	7.045967	-0.709323	-0.219215	0.130695	0.305864	-0.440037	0.844283	0.775955	0.629054	0.046749	-0.551671	0.640827	0.533854
06869	10.921834	0.372934	5.937326	-0.712950	-0.204927	0.169746	0.305982	-0.437606	0.845503	0.779351	0.625209	0.041546	-0.546797	0.646231	0.532351
06870	8.904819	0.071939	5.157349	-0.730182	-0.126164	0.189605	0.306544	-0.435694	0.846287	0.782750	0.621276	0.036322	-0.541603	0.651297	0.531488
06871	7.325090	-0.246029	4.705677	-0.765541	-0.268750	0.179478	0.306427	-0.432775	0.847825	0.786326	0.617045	0.030773	-0.536464	0.657237	0.529382
06872	7.205005	-0.558767	4.279129	-0.793080	-0.461464	0.171055	0.305085	-0.428757	0.850347	0.790044	0.612524	0.025394	-0.531746	0.664065	0.525609
06873	8.052846	-0.767681	3.919618	-0.815579	-0.546108	0.158969	0.303377	-0.424090	0.853294	0.793878	0.607755	0.019804	-0.526992	0.671403	0.521054
06874	8.537439	-0.940851	3.515709	-0.833546	-0.510843	0.154183	0.301709	-0.419777	0.856013	0.797782	0.602774	0.014406	-0.522030	0.678566	0.516753
06875	8.211222	-1.202020	3.435315	-0.836855	-0.389296	0.146936	0.300788	-0.416187	0.858088	0.801685	0.597681	0.008869	-0.516554	0.685248	0.513426
06876	7.960501	-1.469668	3.725703	-0.849614	-0.353079	0.123194	0.299770	-0.413064	0.859951	0.805656	0.592372	0.003693	-0.510936	0.691718	0.510363
06877	8.209586	-1.662895	3.706550	-0.852008	-0.416548	0.099435	0.298382	-0.409528	0.862122	0.809688	0.586859	-0.001463	-0.505344	0.698487	0.506698
06878	8.571050	-1.727421	3.556917	-0.840822	-0.390152	0.081497	0.296906	-0.406336	0.864140	0.813639	0.581337	-0.006199	-0.499838	0.704938	0.503213
06879	8.600868	-1.770018	3.660553	-0.838486	-0.331056	0.058046	0.295661	-0.403600	0.865848	0.817634	0.575636	-0.010874	-0.494024	0.711161	0.500189
06880	8.425932	-1.854924	3.745929	-0.843318	-0.324112	0.038928	0.294231	-0.401060	0.867513	0.821615	0.569840	-0.015221	-0.488239	0.717240	0.497181
06881	8.464587	-1.921004	3.852688	-0.844807	-0.339049	0.008153	0.292579	-0.398513	0.869244	0.825690	0.563788	-0.019445	-0.482320	0.723416	0.494001
06882	8.632290	-2.004399	3.826410	-0.844166	-0.363199	-0.028744	0.290458	-0.396017	0.871094	0.829770	0.557624	-0.023172	-0.476566	0.729539	0.490569
06883	8.538292	-2.074139	3.633579	-0.835337	-0.353400	-0.069973	0.288130	-0.393756	0.872890	0.833929	0.551229	-0.026612	-0.470684	0.735596	0.487190
06884	8.311781	-2.170413	3.682282	-0.812074	-0.339753	-0.114797	0.285454	-0.391840	0.874630	0.838002	0.544876	-0.029391	-0.465048	0.741331	0.483900
06885	8.392822	-2.238806	3.801972	-0.791863	-0.367342	-0.171644	0.282242	-0.389975	0.876504	0.842149	0.538313	-0.031673	-0.459482	0.747086	0.480352
06886	8.706419	-2.180827	3.743639	-0.762327	-0.410185	-0.223164	0.278371	-0.388045	0.878596	0.846202	0.531826	-0.033219	-0.454370	0.752717	0.476409
06887	8.782007	-2.118487	3.594906	-0.726256	-0.390713	-0.268296	0.274259	-0.386449	0.880591	0.850225	0.525303	-0.034271	-0.449332	0.758099	0.472637
06888	8.568966	-2.067301	3.629072	-0.692725	-0.380607	-0.308119	0.269833	-0.385100	0.882547	0.854100	0.518950	-0.034691	-0.444638	0.763144	0.468943
06889	8.487224	-2.020799	3.554401	-0.658020	-0.416941	-0.348646	0.264933	-0.383641	0.884664	0.857944	0.512574	-0.034649	-0.440163	0.768171	0.464940
06890	8.545986	-1.921881	3.462498	-0.621063	-0.433864	-0.383818	0.259645	-0.382179	0.886862	0.861611	0.506428	-0.034015	-0.436132	0.772961	0.460781
06891	8.733674	-1.800583	3.460895	-0.586332	-0.433704	-0.414389	0.254114	-0.380837	0.889038	0.865221	0.500304	-0.032991	-0.432225	0.777598	0.456642
06892	8.853978	-1.646553	3.451493	-0.558034	-0.427986	-0.428529	0.248482	-0.379545	0.891180	0.868636	0.494441	-0.031618	-0.428635	0.781968	0.452546
06893	8.901180	-1.567976	3.470755	-0.539911	-0.398853	-0.441438	0.242868	-0.378520	0.893162	0.872025	0.488537	-0.030079	-0.424957	0.786164	0.448729
06894	8.815586	-1.509486	3.482253	-0.516034	-0.370011	-0.436335	0.237427	-0.377626	0.895001	0.875188	0.482948	-0.028401	-0.421514	0.790038	0.445158
06895	8.809615	-1.448139	3.499321	-0.498583	-0.337554	-0.438045	0.232100	-0.376988	0.896666	0.878309	0.477350	-0.026655	-0.417975	0.793736	0.441905
06896	8.852992	-1.368640	3.529195	-0.480502	-0.311139	-0.431911	0.226951	-0.376456	0.898206	0.881230	0.472035	-0.024823	-0.414640	0.797160	0.438873
06897	8.876039	-1.346096	3.520411	-0.468452	-0.268503	-0.424782	0.222025	-0.376235	0.899529	0.884117	0.466697	-0.023021	-0.411147	0.800400	0.436255
06898	8.859462	-1.315795	3.578225	-0.453878	-0.217470	-0.421037	0.217361	-0.376331	0.900627	0.886829	0.461613	-0.021144	-0.407784	0.803299	0.434078
06899	8.922094	-1.281273	3.641376	-0.436809	-0.172160	-0.417567	0.212886	-0.376792	0.901503	0.889500	0.456529	-0.019240	-0.404313	0.805983	0.432345
06900	8.925310	-1.266142	3.676994	-0.412931	-0.111268	-0.421218	0.208648	-0.377686	0.902119	0.891981	0.451747	-0.017172	-0.401044	0.808256	0.431145
06901	8.913796	-1.180600	3.770767	-0.396596	-0.042316	-0.421934	0.204643	-0.379169	0.902415	0.894435	0.446944	-0.015041	-0.397626	0.810229	0.430606
06902	8.832878	-1.093367	3.840235	-0.384916	0.016282	-0.414034	0.200969	-0.381018	0.902462	0.896732	0.442386	-0.012918	-0.394315	0.811862	0.430576
06903	8.736822	-1.039314	3.920102	-0.373779	0.065433	-0.410773	0.197471	-0.383285	0.902274	0.899016	0.437782	-0.010788	-0.390865	0.813289	0.431029
06904	8.529109	-0.996110	3.910547	-0.364392	0.112738	-0.410334	0.194189	-0.385865	0.901886	0.901176	0.433368	-0.008623	-0.387522	0.814432	0.431888
06905	8.352608	-0.997629	3.946348	-0.358776	0.137302	-0.412732	0.190929	-0.388691	0.901369	0.903353	0.428849	-0.006419	-0.384056	0.815480	0.433005
06906	8.199394	-0.928628	3.897540	-0.352535	0.157320	-0.416842	0.187735	-0.391630	0.900767	0.905436	0.424463	-0.004163	-0.380712	0.816368	0.434282
06907	8.161611	-0.996112	3.844200	-0.343938	0.168515	-0.427741	0.184431	-0.394739	0.900092	0.907534	0.419975	-0.001774	-0.377316	0.817192	0.435696
06908	8.159419	-0.957928	3.702447	-0.332411	0.202264	-0.429195	0.181268	-0.398064	0.899270	0.909521	0.415658	0.000658	-0.374051	0.817785	0.437393
06909	8.204938	-0.914359	3.727488	-0.321097	0.234487	-0.433762	0.178127	-0.401703	0.898279	0.911495	0.411300	0.003182	-0.370741	0.818210	0.439413
06910	8.202523	-0.819067	3.589877	-0.323855	0.262014	-0.433174	0.175121	-0.405498	0.897165	0.913414	0.406993	0.005659	-0.367435	0.818491	0.441660
06911	8.104749	-0.733162	3.406956	-0.327383	0.306509	-0.422639	0.172313	-0.409644	0.895824	0.915344	0.402594	0.008031	-0.363943	0.818603	0.444337
06912	7.908706	-0.685361	3.408854	-0.336658	0.363853	-0.409404	0.169864	-0.414137	0.894224	0.917224	0.398241	0.010203	-0.360342	0.818471	0.447503
06913	7.937186	-0.576902	3.525543	-0.358041	0.388503	-0.398384	0.167534	-0.418820	0.892481	0.919178	0.393654	0.012187	-0.356433	0.818307	0.450921
06914	8.029253	-0.570947	3.601582	-0.388587	0.388697	-0.378842	0.165415	-0.423356	0.890734	0.921148	0.388968	0.013809	-0.352313	0.818214	0.454315
06915	8.254762	-0.533128	3.920534	-0.420691	0.413810	-0.363275	0.163451	-0.428072	0.888841	0.923216	0.383981	0.015156	-0.347786	0.818115	0.457965
06916	8.584500	-0.575281	4.390293	-0.465085	0.397976	-0.344093	0.161638	-0.432511	0.887021	0.925347	0.378780	0.016071	-0.342937	0.818205	0.461449
06917	9.031473	-0.645823	4.624697	-0.514578	0.328716	-0.325920	0.159676	-0.436353	0.885494	0.927620	0.373155	0.016611	-0.337674	0.818750	0.464354
06918	8.938274	-0.782339	4.163613	-0.557729	0.251413	-0.310632	0.157626	-0.439436	0.884336	0.929953	0.367296	0.016757	-0.332177	0.819750	0.466550
06919	8.414830	-0.977934	4.417339	-0.569412	0.319525	-0.312209	0.155710	-0.443119	0.882836	0.932316	0.361250	0.016884	-0.326406	0.820454	0.469377
06920	8.820350	-1.103149	5.031429	-0.597274	0.200923	-0.330932	0.153266	-0.445827	0.881900	0.934738	0.354932	0.016981	-0.320586	0.821743	0.471130
06921	9.700991	-1.048391	4.836997	-0.631328	0.066305	-0.343527	0.150201	-0.447505	0.881578	0.937263	0.348205	0.017067	-0.314608	0.823707	0.471730
06922	9.834761	-1.197994	4.475352	-0.636733	0.153284	-0.343118	0.147450	-0.449828	0.880859	0.939746	0.341448	0.017060	-0.308442	0.825268	0.473071
06923	9.016629	-1.324713	4.461016	-0.630610	0.219796	-0.352724	0.144744	-0.452760	0.879805	0.942185	0.334650	0.017208	-0.302218	0.826449	0.475022
06924	8.841657	-1.286367	4.917486	-0.627887	0.176940	-0.377926	0.141703	-0.455350	0.878963	0.944600	0.327757	0.017512	-0.296060	0.827787	0.476568
06925	9.794712	-1.156682	5.292100	-0.635684	0.079430	-0.407874	0.138020	-0.457254	0.878561	0.947032	0.320630	0.018097	-0.289968	0.829527	0.477287
06926	10.716961	-0.969523	5.273337	-0.636982	0.089104	-0.423820	0.134247	-0.459216	0.878122	0.949442	0.313384	0.018735	-0.283793	0.831210	0.478070
06927	10.451020	-0.761684	4.978107	-0.645802	0.163742	-0.443295	0.130436	-0.461874	0.877302	0.951840	0.305971	0.019566	-0.277467	0.832499	0.479539
06928	9.453704	-0.771634	4.984113	-0.647638	0.226303	-0.468924	0.126580	-0.465052	0.876187	0.954226	0.298381	0.020516	-0.270978	0.833484	0.481534
06929	9.235572	-0.694579	5.530905	-0.642750	0.146310	-0.524489	0.121907	-0.467739	0.875419	0.956599	0.290574	0.022043	-0.264685	0.834738	0.482861
06930	10.503363	-0.450594	6.196707	-0.642302	0.017599	-0.581352	0.116372	-0.469431	0.875267	0.958987	0.282436	0.023975	-0.258461	0.836579	0.483046
06931	12.154380	-0.047188	6.902506	-0.647486	0.003751	-0.616164	0.110412	-0.471098	0.875143	0.961338	0.274116	0.026272	-0.252268	0.838407	0.483150
06932	12.597537	0.339090	6.414086	-0.676723	-0.070725	-0.628767	0.104166	-0.472083	0.875378	0.963718	0.265403	0.028451	-0.245760	0.840654	0.482601
06933	10.847660	0.433279	4.955201	-0.706546	-0.020577	-0.626252	0.098022	-0.473465	0.875342	0.966062	0.256497	0.030556	-0.238990	0.842639	0.482538
06934	8.330124	0.317448	4.330403	-0.692394	0.037533	-0.651826	0.091796	-0.475299	0.875022	0.968326	0.247515	0.032863	-0.232201	0.844291	0.482966
06935	7.076089	0.599736	4.005348	-0.678492	-0.185211	-0.704203	0.084495	-0.475364	0.875722	0.970500	0.238432	0.035787	-0.225812	0.846864	0.481487
06936	7.617897	0.986082	3.384915	-0.686177	-0.353289	-0.758754	0.076329	-0.474013	0.877203	0.972650	0.228964	0.039091	-0.219377	0.850228	0.478525
06937	8.298476	1.336889	2.870806	-0.672238	-0.297790	-0.786111	0.067981	-0.473158	0.878351	0.974669	0.219516	0.042815	-0.213071	0.853191	0.476095
06938	8.167296	1.621167	2.896234	-0.661111	-0.100624	-0.805164	0.059924	-0.473891	0.878543	0.976573	0.210058	0.046696	-0.206674	0.855163	0.475376
06939	8.011002	1.871792	3.548154	-0.663578	0.020888	-0.811407	0.051987	-0.475653	0.878096	0.978375	0.200528	0.050699	-0.200198	0.856471	0.475792
06940	8.580147	2.056190	4.187633	-0.686622	0.012585	-0.804892	0.044157	-0.477189	0.877691	0.980104	0.190866	0.054461	-0.193509	0.857823	0.476123
06941	9.347774	2.259998	4.499640	-0.706878	0.011464	-0.781903	0.036463	-0.478658	0.877244	0.981761	0.181061	0.057987	-0.186591	0.859129	0.476530
06942	9.437925	2.402394	4.529535	-0.727243	0.075298	-0.763615	0.029139	-0.480500	0.876511	0.983325	0.171254	0.061191	-0.179509	0.860111	0.477478
06943	8.678420	2.467201	4.499767	-0.744384	0.107767	-0.745562	0.021947	-0.482583	0.875575	0.984822	0.161260	0.064195	-0.172174	0.860877	0.478797
06944	8.008314	2.473537	4.618056	-0.759266	0.081388	-0.747036	0.014778	-0.484298	0.874778	0.986214	0.151267	0.067085	-0.164815	0.861727	0.479857
06945	8.138249	2.616403	4.795352	-0.780250	-0.021295	-0.753314	0.007266	-0.485130	0.874412	0.987551	0.140888	0.069960	-0.157134	0.863017	0.480114
06946	8.786514	2.752216	4.625101	-0.810033	-0.094094	-0.736152	-0.000088	-0.485166	0.874422	0.988790	0.130519	0.072517	-0.149311	0.864626	0.479716
06947	8.976601	2.729030	4.502554	-0.836684	-0.022678	-0.705650	-0.007144	-0.485768	0.874059	0.989977	0.119855	0.074702	-0.141048	0.865832	0.480043
06948	8.611324	2.694390	4.662709	-0.850134	0.057512	-0.657169	-0.013494	-0.486870	0.873370	0.991042	0.109550	0.076382	-0.132866	0.866577	0.481030
06949	8.314283	2.603181	4.825137	-0.889569	0.046827	-0.609029	-0.019512	-0.487824	0.872724	0.992082	0.098871	0.077446	-0.124067	0.867325	0.482032
06950	8.358791	2.514244	4.715338	-0.914077	0.019955	-0.549838	-0.024853	-0.488366	0.872285	0.993023	0.088556	0.077872	-0.115276	0.868134	0.482758
06951	8.249005	2.391692	4.693527	-0.937941	0.052790	-0.484245	-0.029643	-0.489141	0.871701	0.993926	0.078044	0.077593	-0.105985	0.868706	0.483856
06952	7.907794	2.154483	4.636884	-0.953912	0.055284	-0.430066	-0.033759	-0.489791	0.871186	0.994728	0.067990	0.076771	-0.096834	0.869185	0.484914
06953	7.660028	1.897315	4.701821	-0.955500	0.027175	-0.391539	-0.037666	-0.490186	0.870804	0.995466	0.057765	0.075575	-0.087348	0.869702	0.485788
06954	7.699011	1.717553	4.723616	-0.939078	-0.029050	-0.375485	-0.041318	-0.489993	0.870747	0.996071	0.048119	0.074343	-0.078327	0.870397	0.486079
